time,seconds_elapsed,z,y,x
1775033685495924200,0.14892431640625,0,0,0
1775033685547405000,0.200405029296875,0.097198486328125,0.016520261764526367,0.05258595943450928
1775033685598885600,0.2518857421875,0.009251594543457031,0.019791483879089355,-0.027533531188964844
1775033685650366200,0.3033662109375,0.04379463195800781,-0.004486680030822754,-0.03389167785644531
1775033685701846800,0.3548466796875,-0.014272689819335938,0.03377425670623779,0.006535530090332031
1775033685753327600,0.40632763671875,0.009943962097167969,0.05313825607299805,0.011605918407440186
1775033685804808200,0.45780810546875,0.046245574951171875,-0.14357197284698486,-0.09967613220214844
1775033685856288800,0.509288818359375,-0.04736137390136719,0.10902667045593262,0.025618314743041992
1775033685907769300,0.560769287109375,0.01759624481201172,0.02518749237060547,0.1846441924571991
1775033685959250000,0.61225,0.05682182312011719,-0.08291733264923096,-0.014579355716705322
1775033686010730800,0.663730712890625,0.01189422607421875,-0.016275644302368164,0.04259967803955078
1775033686062211300,0.71521142578125,-0.0064544677734375,-0.0061893463134765625,0.16019538044929504
1775033686113692000,0.76669189453125,0.02147197723388672,-0.05123472213745117,-0.010432660579681396
1775033686165172500,0.81817236328125,0.03959465026855469,0.008971333503723145,-0.13710397481918335
1775033686216653300,0.8696533203125,-0.02792835235595703,0.05552971363067627,-0.01032346487045288
1775033686268134000,0.9211337890625,-0.014975547790527344,0.060312747955322266,-0.12646329402923584
1775033686319614500,0.972614501953125,0.011664390563964844,-0.065010666847229,-0.14489364624023438
1775033686371095000,1.024094970703125,0.0416107177734375,-0.0585172176361084,0.06573611497879028
1775033686422575600,1.07557568359375,-0.0016078948974609375,-0.03984391689300537,0.10789364576339722
1775033686474056400,1.127056396484375,0.02358531951904297,0.005669116973876953,-0.04025465250015259
1775033686525537000,1.178537109375,-0.005779266357421875,0.031472206115722656,-0.007245540618896484
1775033686577017600,1.230017578125,0.0024785995483398438,0.0017185211181640625,-0.028018474578857422
1775033686628498200,1.281498291015625,0.006453514099121094,-0.05890536308288574,-0.05238896608352661
1775033686679979000,1.33297900390625,0.059859275817871094,0.01388537883758545,-0.07493221759796143
1775033686731459600,1.38445947265625,-0.029677391052246094,-0.031424522399902344,-0.06444048881530762
1775033686782940200,1.435940185546875,-0.08136463165283203,0.055637478828430176,0.015325963497161865
1775033686834420700,1.487420654296875,0.018982887268066406,0.08885562419891357,0.031308263540267944
1775033686885901300,1.5389013671875,0.0205230712890625,-0.0003952980041503906,-0.04618412256240845
1775033686937382100,1.590382080078125,-0.0044097900390625,-0.0061997175216674805,-0.07692283391952515
1775033686988862700,1.64186279296875,-0.00335693359375,-0.07609009742736816,-0.07936188578605652
1775033687040343300,1.69334326171875,-0.02737140655517578,0.02598106861114502,0.09092050790786743
1775033687091823900,1.744823974609375,0.029645919799804688,0.03600585460662842,0.03962552547454834
1775033687143304400,1.796304443359375,-0.020563125610351562,0.004694461822509766,0.06605377793312073
1775033687194785300,1.847785400390625,0.015985488891601562,-0.023363947868347168,-0.022700607776641846
1775033687246265900,1.899265869140625,0.02254486083984375,-0.005103707313537598,-0.17961135506629944
1775033687297746400,1.950746337890625,0.049042701721191406,-0.0671536922454834,-0.24022263288497925
1775033687349227000,2.00222705078125,-0.08463096618652344,0.06774270534515381,-0.005260646343231201
1775033687400707600,2.05370751953125,0.01656055450439453,0.02922368049621582,-0.11922924220561981
1775033687452188400,2.1051884765625,-0.0028371810913085938,0.0003737211227416992,-0.018398165702819824
1775033687503669000,2.1566689453125,-0.03857421875,-0.05334508419036865,0.4321392774581909
1775033687555149600,2.208149658203125,0.0057201385498046875,0.009046435356140137,0.4306415617465973
1775033687606630100,2.259630126953125,-0.006716728210449219,0.0252382755279541,0.3518044352531433
1775033687658110700,2.31111083984375,-0.06927871704101562,-0.134499192237854,0.15984277427196503
1775033687709591300,2.36259130859375,0.19328975677490234,-0.04294586181640625,-0.47654223442077637
1775033687761072000,2.414072021484375,0.03755378723144531,-0.06682741641998291,-0.05684390664100647
1775033687812552700,2.465552734375,0.046105384826660156,-0.17340004444122314,0.07333098351955414
1775033687864033300,2.517033203125,0.028516769409179688,-0.16085517406463623,0.09210489690303802
1775033687915513900,2.568513916015625,-0.0638113021850586,0.06596386432647705,0.1084785908460617
1775033687966994400,2.619994384765625,-0.09033870697021484,0.23453474044799805,0.1747818887233734
1775033688018475000,2.67147509765625,-0.016082763671875,0.18905913829803467,-0.05294737219810486
1775033688069955800,2.722955810546875,-0.005939483642578125,-0.07077062129974365,-0.1492590308189392
1775033688121436400,2.7744365234375,0.07368850708007812,-0.13355422019958496,-0.1364600956439972
1775033688172917000,2.8259169921875,-0.042578697204589844,-0.13687622547149658,-0.09571760892868042
1775033688224397600,2.8773974609375,-0.04363250732421875,0.07519447803497314,-0.08418527245521545
1775033688275878100,2.928878173828125,-0.05658435821533203,0.32730650901794434,-0.11740821599960327
1775033688327358700,2.980358642578125,-0.05293560028076172,0.10791635513305664,-0.2269153594970703
1775033688378839300,3.03183935546875,-0.029756546020507812,0.07546937465667725,-0.26919621229171753
1775033688430320000,3.083320068359375,0.006809234619140625,0.043401122093200684,-0.06208077073097229
1775033688481800700,3.13480078125,0.039399147033691406,-0.10467910766601562,0.13343629240989685
1775033688533281300,3.18628125,0.02099132537841797,0.13601839542388916,-0.05838105082511902
1775033688584761900,3.237761962890625,0.04263782501220703,-0.2271440029144287,0.20384778082370758
1775033688636242400,3.289242431640625,0.061980247497558594,0.08051788806915283,0.632362961769104
1775033688687723000,3.340722900390625,-0.026342391967773438,0.007607817649841309,0.5031174421310425
1775033688739203600,3.39220361328125,0.06451988220214844,-0.06532692909240723,0.17017053067684174
1775033688790684400,3.443684326171875,0.008779525756835938,0.014638900756835938,-0.30321037769317627
1775033688842165000,3.4951650390625,-0.09705352783203125,-0.11586904525756836,-0.7493782639503479
1775033688893645600,3.5466455078125,0.01666545867919922,-0.045009493827819824,-0.16891416907310486
1775033688945126100,3.598126220703125,-0.09868812561035156,0.054211974143981934,0.014597058296203613
1775033688996606700,3.649606689453125,0.042453765869140625,-0.0037779808044433594,-0.301948219537735
1775033689048087300,3.70108740234375,0.10723590850830078,-0.26843392848968506,-0.32514768838882446
1775033689099567900,3.75256787109375,-0.11000633239746094,0.0710902214050293,0.01710125058889389
1775033689151048700,3.804048583984375,-0.03284740447998047,0.07251739501953125,0.016965437680482864
1775033689202529300,3.855529296875,0.0658884048461914,-0.0550767183303833,0.011745074763894081
1775033689254009900,3.907009765625,0.037850379943847656,-0.020360469818115234,0.007148100528866053
1775033689305490400,3.958490478515625,-0.014012336730957031,0.0015510320663452148,0.20872826874256134
1775033689356971000,4.009970947265625,-0.0015611648559570312,0.03706789016723633,0.13067933917045593
1775033689408451600,4.06145166015625,0.009198188781738281,0.016184329986572266,-0.08434295654296875
1775033689459932200,4.11293212890625,0.008063316345214844,0.018944740295410156,0.08628677576780319
1775033689511412700,4.164412841796875,-0.0033359527587890625,-0.044148802757263184,0.11049477756023407
1775033689562893300,4.215893310546875,0.02425098419189453,-0.045877814292907715,0.15342825651168823
1775033689614374100,4.2673740234375,-0.004771232604980469,0.024571895599365234,0.12951378524303436
1775033689665854700,4.318854736328125,-0.011333465576171875,0.01819610595703125,0.014100052416324615
1775033689717335300,4.370335205078125,-0.01766204833984375,-0.016738176345825195,0.06895256042480469
1775033689768815900,4.42181591796875,0.02810382843017578,0.026999950408935547,0.022207260131835938
1775033689820296400,4.47329638671875,0.013073921203613281,-0.008180618286132812,-0.1640327274799347
1775033689871777000,4.524777099609375,-0.02244853973388672,-0.025434494018554688,-0.26828470826148987
1775033689923257600,4.576257568359375,-0.03800010681152344,0.030153751373291016,-0.20855098962783813
1775033689974738400,4.627738525390625,-0.023122787475585938,0.0843653678894043,-0.1253708004951477
1775033690026219000,4.679218994140625,-0.056862831115722656,0.0824441909790039,-0.1248222291469574
1775033690077699600,4.730699462890625,-0.02386951446533203,0.1016542911529541,-0.12080278992652893
1775033690129180200,4.78218017578125,0.016780853271484375,0.05757546424865723,-0.02714868076145649
1775033690180660700,4.83366064453125,-0.027462005615234375,0.026064395904541016,0.15313056111335754
1775033690232141300,4.885141357421875,0.023120880126953125,-0.027533769607543945,0.22724288702011108
1775033690283622000,4.936621826171875,0.025170326232910156,-0.02626168727874756,0.1491573303937912
1775033690335102700,4.988102783203125,0.015119552612304688,-0.01945185661315918,0.06958964467048645
1775033690386583000,5.0395830078125,0.0049877166748046875,-0.022121548652648926,0.14152052998542786
1775033690438063900,5.09106396484375,0.024847030639648438,-0.03113269805908203,0.08824282884597778
1775033690489544400,5.14254443359375,-0.016844749450683594,-0.028111815452575684,0.05392219126224518
1775033690541025000,5.19402490234375,0.016916275024414062,-0.005875229835510254,0.024723626673221588
1775033690592505600,5.245505615234375,-0.021728515625,-0.014864206314086914,0.018590904772281647
1775033690643986200,5.296986083984375,0.028804779052734375,-0.011256098747253418,0.009879007935523987
1775033690695466800,5.348466796875,-0.030307769775390625,0.022410869598388672,0.046229250729084015
1775033690746947300,5.399947265625,0.030097007751464844,0.0075032711029052734,0.04187572002410889
1775033690798428200,5.45142822265625,0.010132789611816406,-0.08024609088897705,-0.03419622778892517
1775033690849908700,5.50290869140625,0.02823352813720703,-0.00044536590576171875,0.01338271051645279
1775033690901389300,5.554389404296875,-0.03659629821777344,-0.08355581760406494,-0.2055072784423828
1775033690952870000,5.605869873046875,0.005955696105957031,0.020755529403686523,-0.07126671075820923
1775033691004350500,5.6573505859375,-0.01834392547607422,0.0026328563690185547,0.00833464041352272
1775033691055831000,5.7088310546875,-0.01966094970703125,0.03394269943237305,0.03537676855921745
1775033691107311600,5.7603115234375,-0.03263282775878906,0.09038424491882324,0.018012790009379387
1775033691158792400,5.81179248046875,-0.019003868103027344,0.0032303333282470703,-0.12679481506347656
1775033691210273000,5.86327294921875,0.03770923614501953,0.03477168083190918,-0.053346484899520874
1775033691261753600,5.914753662109375,0.026645660400390625,-0.07029640674591064,0.020078886300325394
1775033691313234200,5.966234130859375,-0.006717681884765625,-0.03993237018585205,0.019165106117725372
1775033691364714800,6.01771484375,0.03262805938720703,-0.013499259948730469,-0.0010689347982406616
1775033691416195300,6.0691953125,-0.019310951232910156,-0.04386603832244873,-0.030722104012966156
1775033691467676000,6.120676025390625,-0.012033462524414062,0.08235049247741699,0.11432862281799316
1775033691519156500,6.172156494140625,-0.025976181030273438,0.13164544105529785,0.045605286955833435
1775033691570637300,6.22363720703125,-0.030341148376464844,-0.008047819137573242,0.05149231106042862
1775033691622118000,6.275117919921875,0.005748748779296875,0.016317367553710938,0.10892527550458908
1775033691673598500,6.326598388671875,0.0006666183471679688,0.02049732208251953,0.02052353322505951
1775033691725079000,6.3780791015625,0.03728199005126953,-0.08332014083862305,0.08177563548088074
1775033691776559600,6.4295595703125,0.028550148010253906,-0.06625616550445557,0.06403174251317978
1775033691828040200,6.481040283203125,0.0068206787109375,-0.02972245216369629,0.06627040356397629
1775033691879520800,6.532520751953125,-0.0000972747802734375,-0.005661725997924805,-0.0330733060836792
1775033691931001600,6.584001708984375,0.019858360290527344,-0.0033469200134277344,-0.09701025485992432
1775033691982482200,6.635482177734375,-0.016808509826660156,0.009578943252563477,-0.12693749368190765
1775033692033962800,6.686962646484375,-0.03202629089355469,0.006022453308105469,-0.16323670744895935
1775033692085443300,6.738443359375,0.00014495849609375,0.04675483703613281,-0.13232384622097015
1775033692136924000,6.789923828125,-0.03508281707763672,0.042511940002441406,-0.10995128750801086
1775033692188404500,6.841404541015625,-0.014155387878417969,0.06055927276611328,-0.10485592484474182
1775033692239885300,6.89288525390625,0.006602287292480469,0.03534221649169922,0.035643287003040314
1775033692291366000,6.944365966796875,0.008335113525390625,-0.007076263427734375,0.14074541628360748
1775033692342846500,6.995846435546875,0.029516220092773438,-0.044867634773254395,0.16135095059871674
1775033692394327000,7.0473271484375,0.03367900848388672,-0.0809328556060791,0.19955572485923767
1775033692445807600,7.0988076171875,0.043374061584472656,-0.02568995952606201,0.16616064310073853
1775033692497288200,7.1502880859375,0.0060024261474609375,-0.04490017890930176,0.2531786859035492
1775033692548768800,7.201768798828125,0.02306652069091797,-0.04163169860839844,0.18848596513271332
1775033692600249600,7.25324951171875,0.041863441467285156,-0.08327782154083252,0.06872183829545975
1775033692651730200,7.304730224609375,-0.01612377166748047,-0.07517623901367188,-0.08883149176836014
1775033692703210800,7.356210693359375,0.020600318908691406,-0.03800773620605469,-0.1671149730682373
1775033692754691300,7.40769140625,-0.039488792419433594,-0.02577519416809082,-0.06986826658248901
1775033692806172000,7.459171875,0.02581787109375,0.04595208168029785,-0.03852495551109314
1775033692857652500,7.510652587890625,-0.07239818572998047,0.05088496208190918,-0.15747585892677307
1775033692909133000,7.562133056640625,-0.0010652542114257812,0.0054929256439208984,-0.24451786279678345
1775033692960614000,7.61361376953125,-0.035144805908203125,0.02854633331298828,-0.1539883315563202
1775033693012094500,7.665094482421875,0.014825820922851562,0.04984092712402344,-0.16312262415885925
1775033693063575000,7.716574951171875,-0.057532310485839844,0.023679733276367188,-0.12225696444511414
1775033693115055600,7.7680556640625,0.018273353576660156,0.06923437118530273,-0.06941160559654236
1775033693166536200,7.8195361328125,-0.024308204650878906,0.02231764793395996,-0.11817789077758789
1775033693218016800,7.871016845703125,0.016828536987304688,-0.011391162872314453,-0.010663986206054688
1775033693269497300,7.922497314453125,-0.007870674133300781,-0.0030241012573242188,0.07631702721118927
1775033693320978200,7.973978271484375,0.004471778869628906,0.04392051696777344,0.09039689600467682
1775033693372458800,8.025458740234376,-0.0113067626953125,0.015566110610961914,0.04770787060260773
1775033693423939300,8.076939208984374,0.012042999267578125,-0.011883735656738281,0.04262667894363403
1775033693475420000,8.128419921875,-0.0074005126953125,-0.04999947547912598,0.05508837103843689
1775033693526900500,8.179900390625,0.016691207885742188,0.008520126342773438,0.057234987616539
1775033693578381000,8.231381103515625,-0.002025604248046875,-0.024158954620361328,0.06980511546134949
1775033693629862000,8.28286181640625,0.021086692810058594,-0.051120758056640625,0.024931639432907104
1775033693681342200,8.33434228515625,-0.013059616088867188,0.03995561599731445,-0.037281423807144165
1775033693732823000,8.385822998046875,-0.02078533172607422,-0.06354093551635742,0.07712798565626144
1775033693784303600,8.4373037109375,0.03254413604736328,0.1493990421295166,-0.04496936500072479
1775033693835784200,8.4887841796875,0.013955116271972656,-0.21151244640350342,0.0877097025513649
1775033693887264800,8.5402646484375,-0.007529258728027344,-0.004904985427856445,-0.07387416064739227
1775033693938745300,8.591745361328124,-0.012454032897949219,0.06789612770080566,0.022829830646514893
1775033693990226000,8.643225830078125,0.027199745178222656,-0.012474775314331055,-0.015951484441757202
1775033694041706500,8.69470654296875,0.0977487564086914,0.11371946334838867,-0.07681594789028168
1775033694093187300,8.746187255859375,-0.0914621353149414,-0.08901405334472656,0.12535953521728516
1775033694144668000,8.79766796875,0.05595588684082031,0.033362388610839844,0.023225292563438416
1775033694196148500,8.8491484375,-0.009151458740234375,-0.0537104606628418,-0.014469988644123077
1775033694247629000,8.900629150390625,0.0357513427734375,-0.020032405853271484,-0.36327093839645386
1775033694299109600,8.952109619140625,-0.06860923767089844,-0.06876301765441895,-0.3187510073184967
1775033694350590200,9.003590087890625,0.06333637237548828,0.09531807899475098,0.23819273710250854
1775033694402070800,9.05507080078125,-0.06750011444091797,0.07486248016357422,0.15582036972045898
1775033694453551400,9.10655126953125,-0.03695964813232422,-0.08626794815063477,-0.3247620463371277
1775033694505032200,9.1580322265625,-0.015666961669921875,0.04970860481262207,-0.645447313785553
1775033694556512800,9.2095126953125,0.030170440673828125,0.17039275169372559,0.9271417856216431
1775033694607993300,9.260993408203126,-0.08640193939208984,0.08828997611999512,0.026169784367084503
1775033694659474000,9.312473876953124,-0.034366607666015625,-0.04626345634460449,0.15914900600910187
1775033694710954500,9.36395458984375,0.07564449310302734,-0.15389227867126465,-0.12402542680501938
1775033694762435000,9.41543505859375,-0.0091400146484375,-0.007818937301635742,0.1557273119688034
1775033694813915600,9.46691552734375,0.07184028625488281,-0.04714155197143555,0.1984119713306427
1775033694865396200,9.518396240234376,0.06837844848632812,-0.04458022117614746,0.15609629452228546
1775033694916876800,9.569876708984374,-0.09388160705566406,-0.030503034591674805,0.035573795437812805
1775033694968357400,9.621357421875,0.04887199401855469,0.06928443908691406,0.1591441035270691
1775033695019838200,9.672838134765625,-0.0560455322265625,-0.04703998565673828,0.08255335688591003
1775033695071318800,9.72431884765625,0.042908668518066406,-0.060509443283081055,-0.08241724967956543
1775033695122799400,9.77579931640625,-0.004485130310058594,-0.07363390922546387,-0.20892471075057983
1775033695174280000,9.827280029296874,0.00330352783203125,-0.003607034683227539,-0.14362502098083496
1775033695225760500,9.878760498046875,-0.026322364807128906,0.06310248374938965,-0.09734298288822174
1775033695277241000,9.930240966796875,-0.02904224395751953,0.08652567863464355,-0.20492564141750336
1775033695328721700,9.9817216796875,-0.009057998657226562,0.05198359489440918,-0.27111461758613586
1775033695380202200,10.0332021484375,-0.030570030212402344,0.02805614471435547,-0.19662229716777802
1775033695431682800,10.084682861328124,-0.010922431945800781,0.09966492652893066,-0.04842856526374817
1775033695483163400,10.136163330078125,-0.03374481201171875,0.031615495681762695,-0.06129787862300873
1775033695534644000,10.18764404296875,0.0022563934326171875,0.005036354064941406,-0.018321596086025238
1775033695586124500,10.23912451171875,0.013184547424316406,0.010960578918457031,0.05718191713094711
1775033695637605400,10.29060546875,-0.007275581359863281,0.00612950325012207,0.12441535294055939
1775033695689085700,10.342085693359374,0.01708507537841797,-0.008202075958251953,0.14946390688419342
1775033695740566500,10.39356640625,0.012705802917480469,-0.032712459564208984,0.16098575294017792
1775033695792047000,10.445047119140625,0.02077770233154297,-0.03959846496582031,0.18945950269699097
1775033695843527700,10.496527587890625,0.036197662353515625,-0.10561132431030273,0.20378714799880981
1775033695895008300,10.54800830078125,0.042822837829589844,-0.050600528717041016,0.21456949412822723
1775033695946488800,10.59948876953125,-0.0026702880859375,-0.06544947624206543,0.20440389215946198
1775033695997969400,10.650969482421875,0.02903270721435547,-0.03880000114440918,0.14111246168613434
1775033696049450000,10.702449951171875,0.01569080352783203,-0.03236198425292969,0.12269670516252518
1775033696100930600,10.7539306640625,0.014706611633300781,-0.07276272773742676,0.06070917099714279
1775033696152411100,10.8054111328125,-0.0068492889404296875,-0.02821207046508789,-0.014921382069587708
1775033696203891700,10.8568916015625,0.005673408508300781,-0.00839686393737793,-0.10487822443246841
1775033696255372300,10.908372314453125,0.009929656982421875,-0.015719890594482422,-0.18161003291606903
1775033696306852900,10.959852783203125,-0.046604156494140625,0.022576332092285156,-0.13446567952632904
1775033696358333400,11.01133349609375,-0.016028404235839844,0.03458142280578613,-0.15440379083156586
1775033696409814000,11.06281396484375,-0.02168750762939453,0.06579995155334473,-0.340718537569046
1775033696461294600,11.114294677734375,-0.06056690216064453,0.08474278450012207,-0.28442350029945374
1775033696512775200,11.165775146484375,0.036896705627441406,0.10520577430725098,-0.20206962525844574
1775033696564256000,11.217256103515625,-0.07999229431152344,-0.023621797561645508,-0.06520857661962509
1775033696615736300,11.268736328125,0.04356670379638672,0.04819488525390625,0.05515799671411514
1775033696667217000,11.320216796875,-0.030330657958984375,0.001638650894165039,0.0558650828897953
1775033696718697500,11.371697509765625,0.042255401611328125,-0.014670610427856445,0.17489130795001984
1775033696770178300,11.42317822265625,0.006575584411621094,-0.03747892379760742,0.20416969060897827
1775033696821658600,11.47465869140625,0.012754440307617188,-0.0019292831420898438,0.16308730840682983
1775033696873139500,11.526139404296876,0.0022649765014648438,-0.019270658493041992,0.13063232600688934
1775033696924620000,11.5776201171875,0.0283660888671875,-0.036269187927246094,0.05739181488752365
1775033696976100600,11.6291005859375,-0.0033349990844726562,-0.035523414611816406,0.02413788065314293
1775033697027581200,11.680581298828125,-0.014922142028808594,-0.034750938415527344,0.02330128289759159
1775033697079061800,11.732061767578125,0.01755809783935547,-0.03358960151672363,0.022552654147148132
1775033697130542300,11.783542236328126,0.06181907653808594,-0.03266453742980957,-0.058721669018268585
1775033697182023000,11.83502294921875,0.33312129974365234,-0.1325666904449463,0.007676340639591217
1775033697233503500,11.88650341796875,-0.5254020690917969,0.07175421714782715,-0.09452111274003983
1775033697284984000,11.937984130859375,0.059429168701171875,0.07348895072937012,-0.12444868683815002
1775033697336464600,11.989464599609375,0.009679794311523438,0.029510021209716797,0.016521930694580078
1775033697387945200,12.0409453125,-0.06309127807617188,-0.03428030014038086,-0.19140326976776123
1775033697439425800,12.09242578125,0.13100337982177734,-0.028044939041137695,-0.03466673567891121
1775033697490906400,12.14390625,0.042755126953125,-0.03639698028564453,-0.1095244288444519
1775033697542387000,12.195386962890625,-0.009163856506347656,-0.03481125831604004,-0.025536350905895233
1775033697593867500,12.246867431640625,0.006791114807128906,-0.007216691970825195,0.05238949507474899
1775033697645348000,12.29834814453125,-0.043585777282714844,0.05402207374572754,0.007027646526694298
1775033697696828700,12.34982861328125,0.0071697235107421875,0.05160951614379883,-0.0792640820145607
1775033697748309200,12.401309326171875,-0.034699440002441406,0.02720165252685547,-0.04655800387263298
1775033697799789800,12.452789794921875,-0.012833595275878906,0.03371620178222656,-0.03300905600190163
1775033697851270400,12.5042705078125,-0.012052536010742188,0.051534175872802734,0.02668401226401329
1775033697902751000,12.5557509765625,0.07860565185546875,-0.04029393196105957,-0.004823196679353714
1775033697954231600,12.6072314453125,-0.053730010986328125,0.003945827484130859,0.02597406506538391
1775033698005712100,12.658712158203125,0.07056713104248047,-0.0655057430267334,0.10955876857042313
1775033698057192700,12.710192626953125,-0.0134124755859375,-0.019251346588134766,0.09839971363544464
1775033698108673500,12.761673583984376,0.0019092559814453125,-0.0211639404296875,0.06915149837732315
1775033698160154000,12.813154052734374,-0.06874847412109375,-0.023776531219482422,0.1592978984117508
1775033698211634700,12.864634765625,-0.09235858917236328,0.07120180130004883,-0.09660430252552032
1775033698263115300,12.916115234375,-0.14296627044677734,0.11284756660461426,0.07119724154472351
1775033698314595800,12.967595947265625,-0.07320308685302734,0.09177398681640625,0.08174066245555878
1775033698366076400,13.019076416015626,0.025682449340820312,0.12604665756225586,-0.0428767167031765
1775033698417557000,13.070556884765624,0.14827537536621094,0.018961668014526367,-0.029515057802200317
1775033698469037600,13.12203759765625,0.02425861358642578,-0.07822561264038086,-0.10222521424293518
1775033698520518100,13.17351806640625,0.04131889343261719,-0.03006768226623535,-0.011233501136302948
1775033698571998700,13.224998779296875,0.03293323516845703,-0.028998851776123047,-0.1311529576778412
1775033698623479300,13.276479248046876,-0.009981155395507812,-0.03204822540283203,-0.14288654923439026
1775033698674960000,13.3279599609375,0.018691062927246094,0.02843642234802246,-0.14631560444831848
1775033698726440400,13.3794404296875,-0.034272193908691406,0.03226327896118164,-0.10035907477140427
1775033698777921000,13.430921142578125,0.029510498046875,0.026413917541503906,-0.042957305908203125
1775033698829401600,13.482401611328125,-0.01882457733154297,-0.006972551345825195,0.0077630262821912766
1775033698880882200,13.533882080078126,0.008349418640136719,0.015635251998901367,0.13712885975837708
1775033698932362800,13.58536279296875,0.008311271667480469,-0.033618927001953125,0.21219424903392792
1775033698983843300,13.63684326171875,0.04851531982421875,-0.04796576499938965,0.20045261085033417
1775033699035324000,13.688323974609375,-0.0002880096435546875,-0.07373237609863281,0.18996506929397583
1775033699086804500,13.739804443359375,0.045612335205078125,-0.04902911186218262,0.10602683573961258
1775033699138285000,13.79128515625,-0.004317283630371094,-0.02791619300842285,0.21889033913612366
1775033699189766000,13.842765869140624,0.006908416748046875,-0.07378363609313965,0.18436262011528015
1775033699241246500,13.89424658203125,0.024712562561035156,-0.03913688659667969,-0.05699450522661209
1775033699292726800,13.945726806640625,-0.0257720947265625,-0.027362346649169922,-0.18500643968582153
1775033699344207400,13.997207275390625,0.018797874450683594,0.0062084197998046875,-0.1872362494468689
1775033699395688000,14.04868798828125,-0.04934978485107422,0.02966165542602539,-0.14790448546409607
1775033699447168500,14.10016845703125,-0.0033025741577148438,0.04349541664123535,-0.18069414794445038
1775033699498649000,14.151649169921875,-0.03136157989501953,0.05744314193725586,-0.2751206159591675
1775033699550129700,14.203129638671875,-0.0023221969604492188,0.056783199310302734,-0.16667760908603668
1775033699601610200,14.2546103515625,-0.042616844177246094,0.03607678413391113,-0.048911869525909424
1775033699653091000,14.306091064453126,0.02701282501220703,0.024982690811157227,-0.023746659979224205
1775033699704571600,14.357571533203124,-0.03549671173095703,-0.0020859241485595703,0.028733130544424057
1775033699756052200,14.40905224609375,0.020235061645507812,0.03480362892150879,0.0014918996021151543
1775033699807532800,14.46053271484375,-0.005555152893066406,-0.005153179168701172,0.10187380760908127
1775033699859013400,14.512013427734376,0.020133018493652344,0.023303747177124023,0.055566735565662384
1775033699910494000,14.563493896484376,-0.02232074737548828,-0.002050161361694336,0.08455302566289902
1775033699961974500,14.614974609375,0.023476600646972656,-0.01646256446838379,0.10785972326993942
1775033700013455000,14.666455078125,0.007494926452636719,-0.04255342483520508,0.1423671841621399
1775033700064935700,14.717935791015625,0.0022792816162109375,-0.03349614143371582,0.06594230234622955
1775033700116416300,14.769416259765626,0.03161907196044922,-0.01745128631591797,0.11327376961708069
1775033700167896800,14.820896728515624,-0.005236625671386719,-0.04034543037414551,0.11515681445598602
1775033700219377400,14.87237744140625,-0.008636474609375,-0.043210506439208984,0.12008023262023926
1775033700270858000,14.92385791015625,0.041439056396484375,-0.05529046058654785,0.10081116855144501
1775033700322338600,14.975338623046875,-0.006771087646484375,-0.07777285575866699,-0.003946654498577118
1775033700373819100,15.026819091796876,0.011138916015625,-0.00590968132019043,0.013560496270656586
1775033700425299700,15.0782998046875,-0.008893013000488281,-0.012101888656616211,-0.10116493701934814
1775033700476780300,15.1297802734375,0.0007991790771484375,0.011934280395507812,-0.06933817267417908
1775033700528260900,15.1812607421875,-0.037131309509277344,0.036502838134765625,-0.09025927633047104
1775033700579741400,15.232741455078125,0.0028400421142578125,0.024564266204833984,-0.14052461087703705
1775033700631222000,15.284221923828126,0.0033245086669921875,0.012935876846313477,-0.21920347213745117
1775033700682702600,15.33570263671875,-0.029394149780273438,0.04361677169799805,-0.12743589282035828
1775033700734183200,15.38718310546875,-0.02898406982421875,0.05290102958679199,-0.06637334823608398
1775033700785663700,15.438663818359375,0.00980377197265625,0.02596902847290039,-0.09812287986278534
1775033700837144300,15.490144287109375,-0.018843650817871094,0.024634599685668945,-0.0613926500082016
1775033700888625000,15.541625,-0.0074138641357421875,0.010587692260742188,0.00778215192258358
1775033700940105500,15.59310546875,-0.0008020401000976562,0.019057750701904297,0.02268938347697258
1775033700991586000,15.6445859375,0.005908966064453125,0.03488564491271973,0.054087258875370026
1775033701043067000,15.69606689453125,-0.00592803955078125,-0.007704734802246094,0.038711823523044586
1775033701094547500,15.74754736328125,0.032440185546875,-0.015871763229370117,0.08188487589359283
1775033701146028000,15.799028076171876,-0.018360137939453125,0.005285739898681641,0.08651608228683472
1775033701197508600,15.850508544921874,0.021155357360839844,-0.02515411376953125,0.0700443759560585
1775033701248989200,15.9019892578125,0.012456893920898438,-0.020850419998168945,0.07244245707988739
1775033701300469800,15.9534697265625,-0.00498199462890625,0.02288198471069336,0.1093202754855156
1775033701351950300,16.004950439453125,0.0292510986328125,-0.03533625602722168,0.16276447474956512
1775033701403431000,16.056430908203126,0.0015850067138671875,-0.05595207214355469,0.086515873670578
1775033701454911500,16.107911376953126,-0.004427909851074219,-0.0029754638671875,0.026348568499088287
1775033701506392000,16.15939208984375,0.008863449096679688,0.008761167526245117,0.008405521512031555
1775033701557872600,16.21087255859375,-0.07591724395751953,0.06513619422912598,0.08881082385778427
1775033701609353200,16.262353271484375,0.1050863265991211,-0.08137631416320801,0.35253387689590454
1775033701660833800,16.313833740234376,-0.03486919403076172,-0.06279802322387695,0.14175382256507874
1775033701712314400,16.365314453125,0.09729862213134766,-0.09682774543762207,-0.10791507363319397
1775033701763795000,16.416794921875,-0.010659217834472656,-0.19492042064666748,-0.1460837423801422
1775033701815275500,16.468275634765625,0.03768444061279297,-0.0373082160949707,-0.14933530986309052
1775033701866756000,16.519756103515626,-0.027915000915527344,0.015779495239257812,-0.16966508328914642
1775033701918236700,16.571236572265626,-0.013257980346679688,0.03244781494140625,-0.27952417731285095
1775033701969717200,16.62271728515625,-0.046848297119140625,0.09827852249145508,-0.264428049325943
1775033702021197800,16.67419775390625,-0.013598442077636719,0.07808208465576172,-0.2598646283149719
1775033702072678400,16.725678466796875,-0.0667572021484375,0.06776046752929688,-0.11590584367513657
1775033702124159000,16.777158935546876,-0.007311820983886719,0.10355281829833984,-0.02643246203660965
1775033702175639600,16.8286396484375,-0.03011798858642578,0.05149984359741211,0.04290584847331047
1775033702227120000,16.8801201171875,0.022269248962402344,0.0186004638671875,-0.004732675850391388
1775033702278600700,16.9316005859375,-0.012226104736328125,0.02330803871154785,-0.010773248970508575
1775033702330081300,16.983081298828125,0.013199806213378906,-0.010464191436767578,0.05387736111879349
1775033702381561900,17.034561767578126,0.022434234619140625,-0.019878149032592773,0.10875304788351059
1775033702433042400,17.08604248046875,-0.006564140319824219,-0.0482335090637207,0.09593456983566284
1775033702484523000,17.13752294921875,0.032550811767578125,-0.018011093139648438,0.12109287083148956
1775033702536003600,17.189003662109375,-0.007282257080078125,-0.018852949142456055,0.04783906787633896
1775033702587484200,17.240484130859375,0.021676063537597656,-0.011001825332641602,0.05887167155742645
1775033702638964700,17.29196484375,-0.030961036682128906,-0.0030546188354492188,0.00914166308939457
1775033702690445300,17.3434453125,0.03279304504394531,-0.0631105899810791,0.08114605396986008
1775033702741926000,17.39492578125,-0.013017654418945312,-0.0065364837646484375,0.09184897691011429
1775033702793406500,17.446406494140625,0.0076503753662109375,0.012412548065185547,0.08153749257326126
1775033702844887000,17.497886962890625,0.017104148864746094,0.021233797073364258,-0.04576442390680313
1775033702896367600,17.54936767578125,-0.011302947998046875,-0.050087928771972656,-0.038237590342760086
1775033702947848200,17.60084814453125,0.017850875854492188,-0.011415958404541016,-0.007785255089402199
1775033702999328800,17.652328857421875,-0.02467823028564453,0.021049022674560547,-0.022720281034708023
1775033703050809300,17.703809326171875,0.009999275207519531,0.007605314254760742,-0.16564758121967316
1775033703102290000,17.7552900390625,-0.013780593872070312,0.02002120018005371,-0.2068691998720169
1775033703153770500,17.8067705078125,-0.010156631469726562,0.02461385726928711,-0.14596185088157654
1775033703205251000,17.8582509765625,-0.02209758758544922,0.03699755668640137,-0.0658368393778801
1775033703256731600,17.909731689453125,-0.0027132034301757812,0.010431528091430664,-0.04160811007022858
1775033703308212000,17.9612119140625,-0.024895668029785156,0.021389007568359375,-0.04626428335905075
1775033703359692800,18.01269287109375,0.02410411834716797,0.012068748474121094,-0.01501789316534996
1775033703411173000,18.064173095703126,-0.015493392944335938,-0.00559544563293457,0.02660726010799408
1775033703462653700,18.11565380859375,0.018708229064941406,0.023683547973632812,0.09580254554748535
1775033703514134300,18.16713427734375,-0.008974075317382812,-0.006819248199462891,0.10765872895717621
1775033703565614800,18.21861474609375,0.025278091430664062,-0.009588479995727539,0.10632770508527756
1775033703617095400,18.270095458984375,-0.0124664306640625,-0.03554654121398926,0.10505018383264542
1775033703668576000,18.321575927734376,0.0070590972900390625,-0.014122962951660156,0.09218357503414154
1775033703720056600,18.373056640625,0.014445304870605469,-0.030068635940551758,0.08917154371738434
1775033703771537200,18.424537109375,-0.006472587585449219,-0.008995771408081055,0.047389719635248184
1775033703823017700,18.476017822265625,0.017724990844726562,-0.018738985061645508,0.004091177135705948
1775033703874498300,18.527498291015625,-0.0260009765625,0.004677772521972656,-0.015970321372151375
1775033703925979000,18.578978759765626,0.005150794982910156,-0.008168697357177734,0.00653231143951416
1775033703977459500,18.63045947265625,-0.01009368896484375,-0.0006732940673828125,-0.047836530953645706
1775033704028940000,18.68193994140625,0.01006317138671875,-0.015037298202514648,-0.014201235957443714
1775033704080420600,18.733420654296875,0.012536048889160156,0.01554727554321289,-0.07514484971761703
1775033704131901200,18.784901123046875,-0.012351036071777344,0.0007011890411376953,-0.007745887152850628
1775033704183381800,18.8363818359375,0.008209228515625,0.015266895294189453,0.01274924911558628
1775033704234862000,18.887862060546876,0.003997802734375,0.027864456176757812,-0.008055741898715496
1775033704286342700,18.9393427734375,0.0011854171752929688,-0.011539459228515625,-0.034583233296871185
1775033704337823200,18.9908232421875,-0.02145862579345703,0.007305622100830078,0.1137828528881073
1775033704389303800,19.0423037109375,0.010016441345214844,0.018752574920654297,0.05891505628824234
1775033704440784400,19.093784423828126,-0.01751232147216797,-0.028621196746826172,-0.078520268201828
1775033704492265000,19.145264892578126,0.025966644287109375,-0.008016347885131836,-0.02069738321006298
1775033704543745500,19.19674560546875,-0.024250030517578125,0.011112451553344727,0.00597881805151701
1775033704595226000,19.24822607421875,0.052908897399902344,-0.036556243896484375,-0.058331649750471115
1775033704646706700,19.299706787109375,0.4864206314086914,-0.2733365297317505,-0.12023001909255981
1775033704698187300,19.351187255859376,-0.14899253845214844,-0.19730639457702637,0.09839420020580292
1775033704749667800,19.402667724609376,-0.085357666015625,-0.009066581726074219,0.3021421432495117
1775033704801148400,19.4541484375,-0.2791585922241211,0.12226295471191406,0.08423323929309845
1775033704852629000,19.50562890625,-0.24270915985107422,0.18626141548156738,0.05846916139125824
1775033704904109600,19.557109619140626,-0.25068187713623047,0.17412805557250977,0.174636110663414
1775033704955590100,19.608590087890626,0.4483613967895508,0.07402777671813965,-0.148075670003891
1775033705007070500,19.660070556640626,-0.0633230209350586,0.0653543472290039,-0.2460162192583084
1775033705058551000,19.711551025390627,0.013824462890625,-0.08241057395935059,0.020783979445695877
1775033705110031600,19.763031494140623,0.015085220336914062,-0.06756019592285156,-0.2494850754737854
1775033705161512200,19.81451220703125,0.07472515106201172,0.06609630584716797,-0.2907571494579315
1775033705212992800,19.86599267578125,-0.05344867706298828,-0.02687668800354004,-0.1017828956246376
1775033705264473300,19.917473388671876,-0.004619598388671875,0.02277231216430664,-0.12371078133583069
1775033705315954000,19.968953857421877,0.07878494262695312,0.020827054977416992,-0.04183081537485123
1775033705367434500,20.0204345703125,0.12349510192871094,-0.12087750434875488,0.04156496748328209
1775033705418915000,20.0719150390625,-0.1541604995727539,-0.03244304656982422,0.14405852556228638
1775033705470395600,20.123395751953126,0.005026817321777344,0.05517435073852539,0.06698936969041824
1775033705521876200,20.174876220703126,-0.09385013580322266,0.08836674690246582,0.12359729409217834
1775033705573356800,20.226356689453127,-0.028306961059570312,0.05187511444091797,0.1971128135919571
1775033705624837400,20.27783740234375,0.0058040618896484375,0.018192529678344727,-0.013896999880671501
1775033705676318000,20.32931787109375,0.0060749053955078125,0.006741523742675781,-0.06039346009492874
1775033705727798500,20.380798583984376,0.023566246032714844,-0.0014600753784179688,-0.03063248097896576
1775033705779278800,20.43227880859375,0.016185760498046875,-0.03518939018249512,-0.06194267049431801
1775033705830759400,20.483759521484377,0.04077720642089844,-0.012522697448730469,-0.08992917090654373
1775033705882240000,20.535239990234373,0.019290924072265625,-0.0432124137878418,-0.03585364669561386
1775033705933720600,20.586720458984374,0.13814544677734375,-0.0643007755279541,-0.04673616588115692
1775033705985201200,20.638201171875,0.39179325103759766,-0.2587132453918457,-0.01661568135023117
1775033706036681700,20.689681640625,-0.1961355209350586,-0.13994145393371582,0.1832878589630127
1775033706088162300,20.741162353515627,-0.21345138549804688,0.08633995056152344,0.3229093551635742
1775033706139643000,20.792642822265623,-0.2694988250732422,0.14855051040649414,0.1250493824481964
1775033706191123500,20.84412353515625,-0.33204174041748047,0.19092655181884766,0.1282721757888794
1775033706242604000,20.89560400390625,0.30933380126953125,0.09143233299255371,0.022961415350437164
1775033706294084600,20.947084716796876,0.05945396423339844,0.12512826919555664,-0.22694997489452362
1775033706345565200,20.998565185546877,-0.01178741455078125,-0.05082869529724121,0.10912997275590897
1775033706397045800,21.050045654296873,0.044559478759765625,-0.14159131050109863,-0.23897704482078552
1775033706448526300,21.1015263671875,0.06610488891601562,0.002924680709838867,-0.28235214948654175
1775033706500007000,21.1530068359375,-0.004138946533203125,0.003941535949707031,-0.10748863220214844
1775033706551487500,21.204487548828126,-0.009250640869140625,0.00011301040649414062,-0.1586175411939621
1775033706602967800,21.2559677734375,-0.014418601989746094,0.07909584045410156,-0.046667661517858505
1775033706654448400,21.307448486328123,0.007144927978515625,0.03519010543823242,0.09512796998023987
1775033706705929000,21.358928955078124,-0.03254413604736328,-0.0065228939056396484,0.052522093057632446
1775033706757409500,21.410409423828124,0.024354934692382812,0.000301361083984375,-0.05162765085697174
1775033706808890000,21.46189013671875,0.016542434692382812,-0.030776500701904297,0.049158379435539246
1775033706860370700,21.51337060546875,-0.018210411071777344,-0.027744293212890625,0.15477705001831055
1775033706911851300,21.564851318359374,0.02420330047607422,0.008133649826049805,0.09289218485355377
1775033706963331800,21.616331787109374,0.006854057312011719,-0.010980606079101562,0.0894240140914917
1775033707014812400,21.6678125,0.014767646789550781,-0.034261226654052734,0.053153570741415024
1775033707066293000,21.71929296875,0.007512092590332031,-0.015091657638549805,0.09757037460803986
1775033707117773600,21.770773681640627,-0.009066581726074219,-0.04181361198425293,0.06720921397209167
1775033707169254100,21.822254150390624,0.027138710021972656,-0.021194934844970703,0.048266101628541946
1775033707220734700,21.873734619140624,-0.008721351623535156,-0.02348494529724121,0.03557931259274483
1775033707272215300,21.92521533203125,0.0074615478515625,-0.030169248580932617,0.017795074731111526
1775033707323695900,21.97669580078125,0.025981903076171875,-0.034320831298828125,-0.08103995025157928
1775033707375176400,22.028176513671873,-0.01912403106689453,-0.019249916076660156,-0.06020709127187729
1775033707426656800,22.07965673828125,0.019376754760742188,0.00016546249389648438,-0.057865776121616364
1775033707478137300,22.131137451171874,-0.039994239807128906,0.030927181243896484,-0.06774187088012695
1775033707529618000,22.182617919921874,0.003238677978515625,0.05237102508544922,-0.07869092375040054
1775033707581098500,22.234098388671875,-0.017156600952148438,0.03616070747375488,-0.10653302818536758
1775033707632579000,22.2855791015625,-0.0009613037109375,0.021445751190185547,-0.004324799869209528
1775033707684059600,22.3370595703125,-0.013754844665527344,0.009662628173828125,-0.004549331497400999
1775033707735540200,22.388540283203124,0.016882896423339844,0.008920431137084961,0.013393087312579155
1775033707787020800,22.440020751953124,-0.010921478271484375,-0.0077669620513916016,-0.02820499986410141
1775033707838501400,22.49150146484375,0.01803112030029297,0.0017249584197998047,0.02594246342778206
1775033707889982000,22.54298193359375,-0.018091201782226562,0.003796100616455078,0.02594437450170517
1775033707941462500,22.594462646484374,0.005053520202636719,0.025846004486083984,0.06380791962146759
1775033707992943000,22.645943115234374,0.00395965576171875,-0.015806198120117188,0.07854823768138885
1775033708044423700,22.697423583984374,-0.009523391723632812,-0.029696226119995117,0.0279473215341568
1775033708095904300,22.748904296875,0.0074367523193359375,-0.017826080322265625,0.037614233791828156
1775033708147384800,22.800384765625,0.016211509704589844,-0.0220639705657959,-0.023697253316640854
1775033708198865200,22.851865234375,-0.008924484252929688,0.01117253303527832,0.059080954641103745
1775033708250345700,22.903345703125,-0.008143424987792969,0.01867222785949707,0.14075781404972076
1775033708301826300,22.954826416015624,-0.0033311843872070312,-0.049070119857788086,0.06542861461639404
1775033708353307000,23.006306884765625,0.041294097900390625,-0.03948163986206055,-0.0754106193780899
1775033708404787500,23.057787353515625,-0.023168563842773438,-0.022324562072753906,-0.06162324175238609
1775033708456268000,23.10926806640625,0.03371906280517578,0.016077041625976562,-0.05689054727554321
1775033708507748600,23.16074853515625,-0.06812286376953125,0.011595964431762695,-0.1884905993938446
1775033708559229200,23.212229248046874,0.016876220703125,0.059298038482666016,-0.16375960409641266
1775033708610709800,23.263709716796875,-0.007460594177246094,0.04172682762145996,-0.2049953043460846
1775033708662190300,23.3151904296875,0.0224151611328125,-0.13346505165100098,-0.10725288093090057
1775033708713671000,23.3666708984375,-0.01689624786376953,-0.018710851669311523,-0.006112650036811829
1775033708765151500,23.4181513671875,-0.042995452880859375,0.1108999252319336,0.04506003111600876
1775033708816632000,23.469632080078124,-0.023482322692871094,0.08629226684570312,0.14553464949131012
1775033708868112600,23.521112548828125,-0.03344440460205078,0.1293323040008545,0.21075615286827087
1775033708919593000,23.572593017578125,0.0008392333984375,-0.021410465240478516,0.2195466160774231
1775033708971073500,23.624073486328125,0.07882404327392578,-0.15415453910827637,0.0434977263212204
1775033709022554000,23.67555419921875,0.04113292694091797,-0.07736515998840332,0.049587350338697433
1775033709074034700,23.72703466796875,0.01073455810546875,-0.021728515625,0.11129774153232574
1775033709125515300,23.778515380859375,-0.01660919189453125,0.009215831756591797,0.005100458860397339
1775033709176995800,23.829995849609375,0.004521369934082031,0.030756235122680664,-0.01747535914182663
1775033709228476400,23.881476318359375,0.000762939453125,0.0009033679962158203,-0.04844420403242111
1775033709279957000,23.93295703125,0.012083053588867188,-0.022336483001708984,-0.06003958731889725
1775033709331437600,23.9844375,-0.0019540786743164062,-0.0292205810546875,-0.06407712399959564
1775033709382918000,24.03591796875,-0.014400482177734375,0.02289748191833496,-0.07668071985244751
1775033709434398500,24.0873984375,0.010362625122070312,0.015339136123657227,-0.09397938847541809
1775033709485879000,24.138879150390625,0.009035110473632812,-0.02813553810119629,-0.06966665387153625
1775033709537359600,24.190359619140626,-0.012267112731933594,0.013210058212280273,0.03178679198026657
1775033709588840200,24.241840087890626,-0.023446083068847656,0.01847696304321289,0.10554502159357071
1775033709640320800,24.29332080078125,0.03122234344482422,0.00977778434753418,0.09393718838691711
1775033709691801300,24.34480126953125,-0.045879364013671875,0.08553099632263184,0.047199077904224396
1775033709743282000,24.396281982421876,-0.009133338928222656,0.026287078857421875,0.03885504603385925
1775033709794762200,24.44776220703125,0.027956008911132812,-0.00008726119995117188,-0.098082035779953
1775033709846242800,24.499242919921876,-0.008670806884765625,-0.0766909122467041,-0.02686263620853424
1775033709897723400,24.550723388671877,0.030603408813476562,-0.02111077308654785,0.03973422944545746
1775033709949204000,24.602203857421873,-0.007750511169433594,-0.04243588447570801,-0.11162851750850677
1775033710000684500,24.6536845703125,0.058753013610839844,0.032390594482421875,-0.06675191223621368
1775033710052165000,24.7051650390625,-0.09303951263427734,-0.0096435546875,-0.07054287195205688
1775033710103645700,24.756645751953126,0.040411949157714844,0.07956838607788086,0.007416144013404846
1775033710155126300,24.808126220703127,-0.03728294372558594,-0.06097865104675293,0.015876561403274536
1775033710206606800,24.85960693359375,0.07470226287841797,-0.03674125671386719,0.06402662396430969
1775033710258087400,24.91108740234375,-0.04026603698730469,-0.049132585525512695,0.026387885212898254
1775033710309567700,24.962567626953124,0.024987220764160156,0.008542776107788086,0.02595214545726776
1775033710361048300,25.01404833984375,-0.004581451416015625,0.06984281539916992,0.03866872191429138
1775033710412529000,25.06552880859375,-0.01950836181640625,0.08635973930358887,0.017109200358390808
1775033710464009500,25.117009521484373,-0.039356231689453125,-0.010869503021240234,0.0891973078250885
1775033710515490000,25.168489990234374,0.02792644500732422,0.005016803741455078,0.07349039614200592
1775033710566970600,25.219970703125,0.006520271301269531,-0.08762049674987793,0.07339909672737122
1775033710618451000,25.271450927734374,0.03096294403076172,-0.20486116409301758,0.05889766663312912
1775033710669931500,25.322931640625,0.08430957794189453,-0.12743139266967773,0.13024365901947021
1775033710721412000,25.374412109375,-0.07565116882324219,0.1722245216369629,-0.003780066967010498
1775033710772892700,25.425892578125,-0.0078887939453125,0.07619214057922363,0.03762736916542053
1775033710824373200,25.477373291015624,0.027151107788085938,-0.13549327850341797,-0.256024569272995
1775033710875853800,25.528853759765624,-0.009815216064453125,-0.06424403190612793,-0.20708632469177246
1775033710927334400,25.58033447265625,0.033400535583496094,-0.042418718338012695,-0.05328601598739624
1775033710978814700,25.631814697265625,0.05042839050292969,0.018186092376708984,0.011554718017578125
1775033711030295300,25.68329541015625,-0.10037612915039062,0.13150405883789062,-0.26442837715148926
1775033711081775900,25.73477587890625,-0.02366352081298828,0.16282224655151367,-0.19797901809215546
1775033711133256400,25.78625634765625,0.014824867248535156,0.04111623764038086,-0.1329769343137741
1775033711184737000,25.837737060546875,-0.057869911193847656,-0.003031015396118164,-0.04202580451965332
1775033711236217600,25.889217529296875,0.0013322830200195312,0.04127621650695801,0.03552224487066269
1775033711287698000,25.940697998046875,-0.007213592529296875,-0.040932416915893555,-0.08854848891496658
1775033711339178500,25.992178466796876,0.046807289123535156,0.01299285888671875,-0.10175168514251709
1775033711390659000,26.0436591796875,-0.07214927673339844,-0.01632547378540039,0.10366280376911163
1775033711442139600,26.0951396484375,0.010367393493652344,0.018929719924926758,0.2272740751504898
1775033711493620200,26.1466201171875,0.03986072540283203,-0.037586212158203125,0.21013805270195007
1775033711545100800,26.198100830078126,0.035025596618652344,-0.08561849594116211,0.2856904864311218
1775033711596581000,26.2495810546875,-0.060555458068847656,0.07984018325805664,0.12442908436059952
1775033711648061700,26.301061767578126,0.0016260147094726562,0.03737664222717285,-0.18166756629943848
1775033711699542300,26.352542236328127,0.009978294372558594,-0.022208690643310547,-0.0074569545686244965
1775033711751022800,26.40402294921875,-0.024872779846191406,-0.03224825859069824,-0.17977431416511536
1775033711802503400,26.45550341796875,0.01734447479248047,-0.004420280456542969,-0.12060455232858658
1775033711853984000,26.50698388671875,0.04241371154785156,-0.10348081588745117,-0.08724024146795273
1775033711905464300,26.55846435546875,-0.043766021728515625,0.0017538070678710938,-0.04868046194314957
1775033711956945000,26.60994482421875,-0.016411781311035156,0.026492595672607422,0.026067795231938362
1775033712008425500,26.661425537109373,-0.017067909240722656,-0.046001434326171875,0.12638705968856812
1775033712059906000,26.712906005859374,0.03700733184814453,0.08315300941467285,0.14720019698143005
1775033712111386600,26.76438671875,-0.03095245361328125,0.060741424560546875,0.09149575233459473
1775033712162867200,26.8158671875,0.054505348205566406,-0.057025909423828125,0.08835142850875854
1775033712214347500,26.867347412109375,0.030524253845214844,-0.07464456558227539,0.09826342761516571
1775033712265828000,26.918828125,0.023665428161621094,-0.05745577812194824,0.04879816994071007
1775033712317308700,26.97030859375,0.034842491149902344,0.003553152084350586,-0.02066943421959877
1775033712368789200,27.021789306640624,-0.005476951599121094,-0.018428564071655273,-0.12131161242723465
1775033712420269800,27.073269775390624,-0.019298553466796875,0.00032258033752441406,-0.05506005138158798
1775033712471750400,27.12475048828125,-0.08283424377441406,0.12044978141784668,-0.10011740028858185
1775033712523231000,27.17623095703125,-0.0066967010498046875,0.06743168830871582,-0.07893907278776169
1775033712574711600,27.227711669921874,-0.016088485717773438,0.0586085319519043,0.020780712366104126
1775033712626192000,27.27919189453125,0.012707710266113281,-0.01792454719543457,0.0038454383611679077
1775033712677672400,27.33067236328125,-0.0034112930297851562,0.005591630935668945,-0.06979337334632874
1775033712729153000,27.382153076171875,0.0035390853881835938,0.0356745719909668,0.033088959753513336
1775033712780633600,27.433633544921875,-0.03681373596191406,-0.035208940505981445,0.010581672191619873
1775033712832114200,27.4851142578125,0.008461952209472656,0.016911983489990234,-0.019993141293525696
1775033712883594500,27.536594482421876,0.05556964874267578,0.048856496810913086,-0.010394036769866943
1775033712935075000,27.588074951171876,0.05858325958251953,-0.1958463191986084,0.05800129473209381
1775033712986555600,27.6395556640625,-0.02646350860595703,-0.1589512825012207,0.03446265310049057
1775033713038036200,27.6910361328125,0.009753227233886719,0.10584259033203125,0.13754582405090332
1775033713089516800,27.742516845703125,-0.11367130279541016,0.15869927406311035,0.06503745168447495
1775033713140997400,27.793997314453126,-0.0498504638671875,0.19628310203552246,-0.05853244662284851
1775033713192478000,27.84547802734375,0.001495361328125,0.04126334190368652,0.08384689688682556
1775033713243958300,27.896958251953127,0.015369415283203125,-0.000335693359375,-0.0009206682443618774
1775033713295438800,27.94843896484375,0.061417579650878906,-0.12801456451416016,-0.0721481442451477
1775033713346919400,27.99991943359375,0.0025777816772460938,-0.03212094306945801,-0.03158329427242279
1775033713398400000,28.05139990234375,-0.011997222900390625,-0.023067235946655273,-0.017903178930282593
1775033713449880600,28.102880615234376,0.049335479736328125,-0.04930233955383301,-0.0749763548374176
1775033713501361000,28.15436083984375,-0.00727081298828125,0.014470577239990234,-0.07071982324123383
1775033713552841500,28.205841552734373,-0.03078937530517578,0.025890111923217773,0.09975269436836243
1775033713604322000,28.257322021484374,0.017602920532226562,0.0005464553833007812,0.1515919715166092
1775033713655802600,28.308802734375,-0.005763053894042969,-0.031743764877319336,0.098775714635849
1775033713707283200,28.360283203125,0.014372825622558594,-0.00500178337097168,0.04295666515827179
1775033713758763800,28.411763671875,0.018425941467285156,-0.03631877899169922,0.02693408727645874
1775033713810244400,28.463244384765623,0.0028276443481445312,-0.0000972747802734375,0.01225253939628601
1775033713861724700,28.514724609375,-0.007319450378417969,0.016068458557128906,0.01157429814338684
1775033713913205200,28.566205322265624,-0.02707386016845703,0.005982160568237305,-0.0655410885810852
1775033713964685800,28.617685791015624,0.0018634796142578125,0.027381420135498047,-0.0507664680480957
1775033714016166400,28.66916650390625,-0.016890525817871094,0.018192291259765625,-0.029544085264205933
1775033714067647000,28.72064697265625,-0.013190269470214844,0.05729174613952637,0.024459809064865112
1775033714119127600,28.77212744140625,-0.08770751953125,0.013506650924682617,0.035070717334747314
1775033714170607900,28.82360791015625,0.09113883972167969,0.02382802963256836,0.04117119312286377
1775033714222088400,28.87508837890625,0.0019788742065429688,-0.013819217681884766,0.000453948974609375
1775033714273569000,28.926569091796875,0.071075439453125,-0.04624485969543457,-0.07076501846313477
1775033714325049600,28.978049560546875,0.008425712585449219,0.015888690948486328,0.01125866174697876
1775033714376530200,29.0295302734375,0.014774322509765625,-0.038721323013305664,-0.061346352100372314
1775033714428010800,29.0810107421875,-0.0030117034912109375,0.008143186569213867,-0.05300110578536987
1775033714479491300,29.1324912109375,-0.019623756408691406,-0.014761924743652344,-0.00336378812789917
1775033714530971600,29.1839716796875,-0.0030002593994140625,-0.010096311569213867,-0.0022001266479492188
1775033714582452200,29.2354521484375,-0.011432647705078125,-0.01316380500793457,-0.04602727293968201
1775033714633932800,29.286932861328125,0.001430511474609375,-0.0018749237060546875,-0.07407629489898682
1775033714685413400,29.338413330078126,-0.00559234619140625,-0.009377241134643555,-0.020501017570495605
1775033714736894000,29.38989404296875,-0.004612922668457031,-0.002743244171142578,-0.006424248218536377
1775033714788374300,29.441374267578126,-0.0022172927856445312,0.01005244255065918,-0.01624906063079834
1775033714839854800,29.492854736328123,0.0007982254028320312,-0.01928114891052246,-0.0009748935699462891
1775033714891335400,29.54433544921875,-0.0001010894775390625,-0.0052149295806884766,0.01843664050102234
1775033714942816000,29.59581591796875,-0.0030841827392578125,-0.004574775695800781,0.023734241724014282
1775033714994296600,29.647296630859376,0.003200531005859375,-0.026776790618896484,-0.01671314239501953
1775033715045777200,29.698777099609377,-0.0012035369873046875,0.017641782760620117,-0.03329470753669739
1775033715097257500,29.750257568359373,0.002048492431640625,-0.003977060317993164,0.01817050576210022
1775033715148738000,29.801738037109374,-0.008670806884765625,0.0011906623840332031,0.035006552934646606
1775033715200218600,29.853218505859374,-0.016559600830078125,-0.02408742904663086,0.025556445121765137
1775033715251699200,29.90469921875,0.03633880615234375,0.05497550964355469,-0.02397063374519348
1775033715303179800,29.9561796875,-0.00594329833984375,-0.0075397491455078125,0.03811904788017273
1775033715354660400,30.007660400390623,-0.02289581298828125,0.029491662979125977,0.06694391369819641
1775033715406141000,30.059140869140624,0.04107856750488281,-0.027364730834960938,0.11887019872665405
1775033715457621200,30.110621337890624,-0.006379127502441406,-0.07091474533081055,0.03586775064468384
1775033715509101800,30.162101806640624,0.034934043884277344,-0.00920867919921875,0.04462307691574097
1775033715560582400,30.21358251953125,-0.014813423156738281,-0.02413773536682129,-0.011431455612182617
1775033715612063000,30.26506298828125,0.015237808227539062,0.008144617080688477,-0.07880693674087524
1775033715663543600,30.31654345703125,-0.031002044677734375,0.009231328964233398,-0.08727264404296875
1775033715715024000,30.36802392578125,-0.007365226745605469,0.005321979522705078,-0.09472817182540894
1775033715766504400,30.41950439453125,-0.0004291534423828125,0.04178285598754883,-0.1350693702697754
1775033715817985000,30.470985107421875,-0.03336906433105469,-0.0024149417877197266,-0.08014625310897827
1775033715869465600,30.522465576171875,-0.007763862609863281,0.044255733489990234,-0.07939833402633667
1775033715920946200,30.5739462890625,-0.008038520812988281,0.012831687927246094,-0.03952133655548096
1775033715972426800,30.6254267578125,-0.0030574798583984375,0.022095918655395508,-0.030642211437225342
1775033716023907000,30.676906982421876,-0.008602142333984375,0.0022852420806884766,0.02732861042022705
1775033716075387600,30.7283876953125,0.02318286895751953,-0.03340888023376465,0.030215919017791748
1775033716126868200,30.7798681640625,0.0023298263549804688,-0.004723072052001953,0.01743614673614502
1775033716178348800,30.831348876953125,0.00563812255859375,-0.00006842613220214844,0.04351052641868591
1775033716229829400,30.882829345703126,0.004828453063964844,0.00017595291137695312,0.07408300042152405
1775033716281309700,30.934309814453126,0.016590118408203125,-0.0045833587646484375,0.07623037695884705
1775033716332790300,30.985790283203126,0.007056236267089844,-0.01728510856628418,0.05357670783996582
1775033716384270800,31.037270751953123,-0.0049419403076171875,0.01779007911682129,0.10644704103469849
1775033716435751400,31.08875146484375,-0.0128936767578125,0.013093948364257812,0.04914620518684387
1775033716487232000,31.14023193359375,0.0071048736572265625,-0.01914691925048828,-0.0034167468547821045
1775033716538712300,31.19171240234375,0.012490272521972656,-0.009028434753417969,0.04481536149978638
1775033716590193000,31.24319287109375,-0.014215469360351562,-0.011757850646972656,0.043901294469833374
1775033716641673500,31.294673583984373,0.02640056610107422,-0.01503300666809082,0.02300173044204712
1775033716693154000,31.346154052734374,-0.004199981689453125,-0.03377175331115723,-0.01987367868423462
1775033716744634600,31.397634521484374,0.0019292831420898438,0.004870176315307617,-0.004389166831970215
1775033716796115000,31.449114990234374,-0.011106491088867188,0.020663022994995117,-0.008752822875976562
1775033716847595500,31.500595458984375,-0.017777442932128906,0.012205362319946289,-0.02377420663833618
1775033716899076000,31.552076171875,0.013372421264648438,0.02253127098083496,-0.08821195363998413
1775033716950556700,31.603556640625,-0.0015964508056640625,-0.04306840896606445,-0.12121385335922241
1775033717002037000,31.655037109375,0.006468772888183594,0.01251673698425293,-0.1053362488746643
1775033717053517600,31.706517578125,-0.029209136962890625,0.026392459869384766,-0.05394423007965088
1775033717104998100,31.757998046875,-0.00024318695068359375,0.03468132019042969,-0.03554427623748779
1775033717156478700,31.809478759765625,-0.005368232727050781,0.0020885467529296875,-0.021784543991088867
1775033717207959300,31.860959228515625,0.022190093994140625,0.030465126037597656,0.008443176746368408
1775033717259439600,31.912439697265626,-0.026991844177246094,-0.005394458770751953,0.020866453647613525
1775033717310920200,31.963920166015626,0.01806640625,-0.016878604888916016,0.01006007194519043
1775033717362400800,32.01540087890625,-0.011128425598144531,-0.02210545539855957,0.029427647590637207
1775033717413881300,32.06688134765625,0.02097034454345703,0.008849143981933594,-0.00913703441619873
1775033717465361700,32.11836157226563,-0.007884979248046875,-0.021489858627319336,-0.023408830165863037
1775033717516842200,32.16984228515625,0.01945018768310547,0.028743982315063477,-0.01672077178955078
1775033717568322800,32.22132275390625,-0.020766258239746094,0.03480029106140137,0.01388368010520935
1775033717619803400,32.27280346679687,0.002788543701171875,-0.022008419036865234,0.04121232032775879
1775033717671283700,32.32428369140625,0.015110969543457031,-0.007611274719238281,0.06478968262672424
1775033717722764300,32.37576440429687,0.0019159317016601562,-0.015301227569580078,0.07980945706367493
1775033717774244900,32.427244873046874,0.007678031921386719,-0.03135371208190918,-0.0004984736442565918
1775033717825725200,32.47872509765625,0.011079788208007812,-0.003891468048095703,0.0032669901847839355
1775033717877205800,32.530205810546875,-0.019776344299316406,-0.0016772747039794922,0.02289712429046631
1775033717928686300,32.581686279296875,0.0050067901611328125,-0.0006124973297119141,0.05073055624961853
1775033717980167000,32.6331669921875,-0.0015697479248046875,-0.0010156631469726562,0.010911911725997925
1775033718031647200,32.684647216796876,0.0011930465698242188,-0.015345335006713867,0.0074271559715271
1775033718083127800,32.7361279296875,0.0054302215576171875,0.009511709213256836,0.02071407437324524
1775033718134608400,32.7876083984375,-0.011851310729980469,0.011939287185668945,0.015968531370162964
1775033718186089000,32.8390888671875,-0.005463600158691406,-0.012291669845581055,-0.035013675689697266
1775033718237569300,32.8905693359375,0.0019407272338867188,-0.009588956832885742,-0.031867533922195435
1775033718289049900,32.9420498046875,0.006291389465332031,0.011075019836425781,-0.034632593393325806
1775033718340530400,32.99353051757812,-0.017024993896484375,-0.0009393692016601562,-0.06594401597976685
1775033718392010800,33.0450107421875,0.013295173645019531,0.0002422332763671875,-0.05881601572036743
1775033718443491300,33.0964912109375,-0.011260986328125,0.032007694244384766,-0.028934836387634277
1775033718494972000,33.14797192382812,-0.012819290161132812,0.0010175704956054688,0.014414548873901367
1775033718546452500,33.199452392578124,0.015435218811035156,-0.0025322437286376953,-0.0028943419456481934
1775033718597932800,33.250932861328124,-0.0036525726318359375,-0.022170543670654297,0.014323651790618896
1775033718649413400,33.302413330078124,0.012386322021484375,-0.005362510681152344,0.016745954751968384
1775033718700894000,33.35389404296875,0.000919342041015625,0.011249780654907227,0.024533212184906006
1775033718752374300,33.405374267578125,-0.00372314453125,0.0070323944091796875,0.012704849243164062
1775033718803854800,33.456854736328125,-0.00012111663818359375,-0.004358768463134766,0.01004144549369812
1775033718855335400,33.50833544921875,0.00054931640625,-0.009119033813476562,0.02242588996887207
1775033718906816000,33.55981591796875,0.0025358200073242188,0.006312847137451172,0.018358498811721802
1775033718958296300,33.61129638671875,-0.004223823547363281,-0.008767127990722656,0.0021623969078063965
1775033719009777000,33.66277685546875,0.005043983459472656,0.006581544876098633,0.006360471248626709
1775033719061257500,33.71425756835937,-0.0064296722412109375,0.014217376708984375,-0.007677704095840454
1775033719112737800,33.76573779296875,0.0033559799194335938,0.0039751529693603516,0.011424034833908081
1775033719164218400,33.81721826171875,-0.009732246398925781,-0.0067594051361083984,0.004487574100494385
1775033719215699000,33.86869897460937,0.006814002990722656,-0.020684480667114258,-0.0037692487239837646
1775033719267179500,33.92017944335937,0.0013589859008789062,0.005755186080932617,-0.030283868312835693
1775033719318659800,33.971659912109374,-0.016945838928222656,0.01789093017578125,-0.012329787015914917
1775033719370140400,34.023140380859374,0.0044574737548828125,0.007535219192504883,-0.004013806581497192
1775033719421620700,34.074620849609374,-0.0018749237060546875,-0.0025501251220703125,-0.02394077181816101
1775033719473101300,34.126101318359375,0.004498481750488281,-0.013364315032958984,-0.010750442743301392
1775033719524582000,34.177581787109375,0.0057964324951171875,0.012384653091430664,0.014948606491088867
1775033719576062500,34.2290625,-0.0041351318359375,0.009172677993774414,0.01416844129562378
1775033719627542800,34.280542724609376,0.015697479248046875,-0.02186298370361328,-0.016011029481887817
1775033719679023400,34.3320234375,-0.0026597976684570312,0.012989997863769531,0.0018614232540130615
1775033719730504000,34.38350390625,-0.0012903213500976562,-0.013517141342163086,0.02366986870765686
1775033719781984500,34.43498461914062,0.003490447998046875,-0.014050960540771484,-0.0007532835006713867
1775033719833464800,34.48646484375,-0.006705284118652344,-0.006795644760131836,0.0189342200756073
1775033719884945400,34.5379453125,-0.006876945495605469,0.007889270782470703,0.0030046701431274414
1775033719936426000,34.58942602539062,-0.0010595321655273438,0.011550188064575195,-0.0025809109210968018
1775033719987906300,34.64090625,-0.0021572113037109375,0.016945362091064453,-0.01668986678123474
1775033720039387000,34.69238696289062,-0.00011539459228515625,-0.008713245391845703,-0.005569636821746826
1775033720090867500,34.74386743164062,0.016414642333984375,-0.006779670715332031,-0.0433315634727478
1775033720142347800,34.79534765625,-0.015740394592285156,0.0016188621520996094,-0.03180453181266785
1775033720193828400,34.846828369140624,-0.014765739440917969,0.005242347717285156,0.0205233097076416
1775033720245309000,34.898308837890625,-0.013211250305175781,-0.007136106491088867,0.04159867763519287
1775033720296789500,34.94978955078125,0.012063980102539062,0.013386011123657227,0.033029139041900635
1775033720348269800,35.001269775390625,0.00583648681640625,-0.020102262496948242,0.0018544197082519531
1775033720399750400,35.05275048828125,0.0172576904296875,0.008457660675048828,0.003359287977218628
1775033720451231000,35.10423095703125,-0.014827728271484375,-0.006964206695556641,0.006540805101394653
1775033720502711600,35.15571166992188,0.010309219360351562,0.010643959045410156,-0.009423762559890747
1775033720554192000,35.20719189453125,-0.0049877166748046875,-0.0067899227142333984,-0.009549885988235474
1775033720605672400,35.25867236328125,0.008587837219238281,0.017928361892700195,-0.024515926837921143
1775033720657152800,35.31015283203125,-0.012400627136230469,0.0016145706176757812,-0.0007835626602172852
1775033720708633300,35.36163330078125,0.0049457550048828125,-0.00429081916809082,0.0030814707279205322
1775033720760114000,35.41311401367187,-0.010641098022460938,0.01494455337524414,-0.0013960003852844238
1775033720811594500,35.46459448242187,-0.004870414733886719,-0.0014882087707519531,-0.022364288568496704
1775033720863074800,35.51607470703125,0.013856887817382812,0.0027594566345214844,-0.014728903770446777
1775033720914555400,35.567555419921874,-0.019947052001953125,0.01344919204711914,-0.0033489465713500977
1775033720966036000,35.619035888671874,0.0026836395263671875,0.008540630340576172,0.022122055292129517
1775033721017516300,35.670516357421874,0.0047588348388671875,-0.018945932388305664,-0.0052575767040252686
1775033721068996900,35.721996826171875,-0.0006465911865234375,-0.010795354843139648,0.02481520175933838
1775033721120477400,35.7734775390625,0.010358810424804688,-0.015429496765136719,-0.010259479284286499
1775033721171958000,35.8249580078125,0.0016193389892578125,0.015173196792602539,-0.004104584455490112
1775033721223438300,35.876438232421876,-0.0061359405517578125,0.03206014633178711,0.028803348541259766
1775033721274919000,35.9279189453125,-0.00041294097900390625,0.009067773818969727,0.040912091732025146
1775033721326399500,35.9793994140625,0.025638580322265625,-0.03186178207397461,0.06429126858711243
1775033721377879800,36.0308798828125,-0.010039329528808594,0.01895308494567871,0.053528934717178345
1775033721429360400,36.0823603515625,0.001010894775390625,-0.004693746566772461,0.06046193838119507
1775033721480841000,36.13384106445312,0.006579399108886719,-0.026436805725097656,-0.012038111686706543
1775033721532321500,36.18532153320312,-0.0009698867797851562,-0.020946741104125977,-0.07330983877182007
1775033721583801900,36.2368017578125,-0.0009355545043945312,-0.0017325878143310547,-0.05446678400039673
1775033721635282400,36.28828247070312,-0.013230323791503906,0.010109424591064453,-0.05432194471359253
1775033721686763000,36.339762939453124,0.009699821472167969,0.0025534629821777344,-0.0889248251914978
1775033721738243600,36.39124365234375,-0.02978229522705078,-0.003299713134765625,-0.1073179841041565
1775033721789724000,36.442723876953124,0.0016222000122070312,0.008831977844238281,-0.062477946281433105
1775033721841204500,36.49420458984375,-0.00048732757568359375,0.006255626678466797,0.017537355422973633
1775033721892685000,36.54568505859375,-0.008152961730957031,0.0036110877990722656,-0.022720813751220703
1775033721944165400,36.597165283203125,0.00681304931640625,0.0005819797515869141,-0.009796440601348877
1775033721995646000,36.64864599609375,0.0007686614990234375,-0.010303497314453125,0.04490146040916443
1775033722047126500,36.70012646484375,0.014154434204101562,0.0186612606048584,0.08631429076194763
1775033722098607000,36.75160717773438,-0.01021575927734375,-0.011060476303100586,0.06828722357749939
1775033722150087400,36.80308740234375,0.026785850524902344,0.0020787715911865234,0.029741644859313965
1775033722201568000,36.85456811523437,-0.004985809326171875,-0.005270481109619141,0.03539341688156128
1775033722253048600,36.90604858398437,-0.020549774169921875,-0.010176658630371094,0.03703343868255615
1775033722304529000,36.95752880859375,0.010517120361328125,0.0186917781829834,0.01499176025390625
1775033722356009500,37.00900952148437,-0.0057830810546875,-0.0231015682220459,-0.011875569820404053
1775033722407490000,37.06048999023437,0.012078285217285156,-0.03917717933654785,-0.037844955921173096
1775033722458970400,37.11197045898437,0.0031480789184570312,0.03517937660217285,-0.02879279851913452
1775033722510451000,37.163450927734374,-0.02823352813720703,0.027063369750976562,-0.019688785076141357
1775033722561931500,37.214931640625,0.004353523254394531,0.015636205673217773,-0.028927624225616455
1775033722613412000,37.266412109375,0.0013036727905273438,-0.008698701858520508,-0.0025957822799682617
1775033722664892400,37.317892333984375,-0.004340171813964844,0.015082836151123047,-0.003076314926147461
1775033722716373000,37.369373046875,0.02150726318359375,-0.030689477920532227,0.00883173942565918
1775033722767853600,37.420853515625,-0.0034608840942382812,-0.008806467056274414,0.018754661083221436
1775033722819334000,37.472333984375,0.011350631713867188,-0.0011515617370605469,0.0293940007686615
1775033722870814500,37.523814453125,-0.012804031372070312,0.008441925048828125,0.02535364031791687
1775033722922295000,37.575294921875,0.0006151199340820312,-0.0012845993041992188,-0.018623411655426025
1775033722973775600,37.62677563476562,0.0004596710205078125,-0.008975744247436523,-0.010359883308410645
1775033723025256000,37.678255859375,0.00609588623046875,0.005265235900878906,-0.032473087310791016
1775033723076736500,37.72973657226562,-0.009908676147460938,0.01686239242553711,-0.026012718677520752
1775033723128217000,37.78121704101562,-0.01224517822265625,0.02390909194946289,-0.014972388744354248
1775033723179697400,37.83269750976562,0.0060901641845703125,-0.00045800209045410156,0.003571927547454834
1775033723231178000,37.88417797851562,-0.00226593017578125,-0.021231651306152344,0.014398366212844849
1775033723282658600,37.935658447265624,0.019079208374023438,0.0028831958770751953,0.06652474403381348
1775033723334139100,37.98713916015625,0.005267143249511719,-0.02124190330505371,0.10798051953315735
1775033723385619500,38.038619384765624,-0.0064830780029296875,0.003370046615600586,0.012378066778182983
1775033723437100000,38.09010009765625,0.013741493225097656,-0.023516178131103516,-0.03687560558319092
1775033723488580600,38.14158056640625,0.0005283355712890625,-0.0057947635650634766,-0.013327866792678833
1775033723540061000,38.19306103515625,0.0024099349975585938,-0.001190185546875,0.014750748872756958
1775033723591541500,38.24454150390625,-0.02701282501220703,0.005384922027587891,-0.016394495964050293
1775033723643022000,38.29602197265625,0.020998001098632812,-0.002048492431640625,-0.07488346099853516
1775033723694502400,38.34750244140625,-0.011967658996582031,0.010479211807250977,-0.02465081214904785
1775033723745983000,38.39898291015625,-0.0016756057739257812,0.01613163948059082,0.04702329635620117
1775033723797463600,38.45046362304687,-0.009542465209960938,0.024460315704345703,0.042235225439071655
1775033723848944000,38.50194409179687,0.010951995849609375,-0.025362491607666016,-0.005983948707580566
1775033723900424400,38.55342456054687,0.014440536499023438,-0.010170936584472656,0.029627323150634766
1775033723951905000,38.60490502929687,-0.001800537109375,-0.00780487060546875,0.13803914189338684
1775033724003385600,38.65638549804687,0.03337574005126953,-0.046172142028808594,0.041090965270996094
1775033724054866000,38.707865966796874,-0.025852203369140625,-0.015982627868652344,-0.10808223485946655
1775033724106346500,38.759346435546874,0.011043548583984375,0.014822006225585938,-0.13363510370254517
1775033724157827000,38.8108271484375,-0.019186019897460938,-0.013393402099609375,-0.15712738037109375
1775033724209307400,38.862307373046875,-0.027434349060058594,0.0019173622131347656,-0.17143464088439941
1775033724260788000,38.9137880859375,0.005616188049316406,0.03567218780517578,-0.18653321266174316
1775033724312268500,38.9652685546875,-0.049536705017089844,0.038053274154663086,-0.1817837953567505
1775033724363748900,39.016748779296876,-0.03439617156982422,0.08684206008911133,-0.061440229415893555
1775033724415229400,39.0682294921875,0.006977081298828125,0.026821136474609375,0.00986027717590332
1775033724466710000,39.1197099609375,-0.007313728332519531,-0.03198671340942383,-0.10945093631744385
1775033724518190300,39.1711904296875,0.033112525939941406,-0.02333521842956543,-0.01151496171951294
1775033724569671000,39.2226708984375,-0.018938064575195312,0.044793128967285156,0.11988458037376404
1775033724621151500,39.2741513671875,0.042105674743652344,0.0252382755279541,0.25651898980140686
1775033724672631800,39.3256318359375,-0.020906448364257812,-0.03136086463928223,0.25275710225105286
1775033724724112400,39.3771123046875,0.03619194030761719,-0.004012346267700195,0.24024195969104767
1775033724775592700,39.4285927734375,0.06296634674072266,-0.10674524307250977,0.25209155678749084
1775033724827073300,39.4800732421875,0.0015096664428710938,-0.0420377254486084,0.16515450179576874
1775033724878553900,39.531553955078124,0.029862403869628906,-0.03471827507019043,0.10851544141769409
1775033724930034200,39.5830341796875,0.0045757293701171875,-0.03780722618103027,0.17758861184120178
1775033724981514800,39.6345146484375,-0.005373954772949219,-0.012567758560180664,0.1890653818845749
1775033725032995300,39.685995361328125,0.017766952514648438,-0.07403421401977539,-0.06198263168334961
1775033725084475600,39.7374755859375,0.014119148254394531,-0.07485580444335938,-0.19324898719787598
1775033725135956200,39.788956298828126,-0.018274307250976562,-0.014234066009521484,-0.1908974051475525
1775033725187436800,39.840436767578126,-0.012395858764648438,0.0374910831451416,-0.1643725037574768
1775033725238917000,39.891917236328126,-0.06862926483154297,0.055391550064086914,-0.30039745569229126
1775033725290397700,39.94339770507813,-0.004845619201660156,0.08794450759887695,-0.3284856081008911
1775033725341878300,39.99487817382813,-0.039320945739746094,0.038524627685546875,-0.14965367317199707
1775033725393358600,40.04635864257813,0.011975288391113281,0.008824586868286133,-0.03529304265975952
1775033725444839200,40.09783911132813,-0.03482246398925781,-0.0031745433807373047,0.03128451108932495
1775033725496319700,40.14931982421875,0.03263568878173828,0.022892236709594727,0.052295804023742676
1775033725547800000,40.20080004882813,0.00244140625,-0.00897979736328125,0.04742938280105591
1775033725599280600,40.25228076171875,0.010273933410644531,-0.0020890235900878906,0.05729815363883972
1775033725650761000,40.30376098632812,0.0073089599609375,0.0006284713745117188,0.09355247020721436
1775033725702241500,40.35524145507812,0.008486747741699219,-0.02351832389831543,0.06975892186164856
1775033725753722000,40.40672216796875,0.01591205596923828,-0.0034127235412597656,0.04817843437194824
1775033725805202400,40.45820239257812,-0.0066547393798828125,-0.026320934295654297,0.022838711738586426
1775033725856683000,40.50968310546875,0.027498245239257812,0.0007851123809814453,0.01926746964454651
1775033725908163600,40.56116357421875,-0.0037870407104492188,-0.009192705154418945,-0.01565641164779663
1775033725959644000,40.612643798828124,-0.0065441131591796875,0.008366584777832031,0.013637244701385498
1775033726011124500,40.66412451171875,0.0000362396240234375,0.002532958984375,0.02900746464729309
1775033726062604800,40.715604736328125,-0.0024290084838867188,-0.001420736312866211,-0.01188504695892334
1775033726114085400,40.76708544921875,0.0008153915405273438,-0.006245136260986328,-0.021849870681762695
1775033726165566000,40.81856591796875,-0.014844894409179688,0.008016824722290039,0.0035400986671447754
1775033726217046300,40.87004638671875,0.012280464172363281,0.0034008026123046875,-0.03516441583633423
1775033726268526800,40.92152685546875,0.004067420959472656,-0.007210493087768555,-0.06810969114303589
1775033726320007400,40.97300732421875,0.017722129821777344,-0.018627405166625977,-0.07512569427490234
1775033726371487700,41.02448779296875,-0.0799112319946289,0.024744510650634766,-0.003115534782409668
