time,seconds_elapsed,z,y,x
1775033685449494800,0.102494873046875,9.629914283752441,1.6552350521087646,-0.6191428303718567
1775033685500975400,0.153975341796875,9.749555587768555,1.6863417625427246,-0.5258227586746216
1775033685552456000,0.2054560546875,9.707681655883789,1.6857435703277588,-0.6143572330474854
1775033685603936800,0.256936767578125,9.736993789672852,1.6636099815368652,-0.6281159520149231
1775033685655417300,0.308417236328125,9.674779891967773,1.7150555849075317,-0.5856433510780334
1775033685706898000,0.35989794921875,9.728020668029785,1.7252250909805298,-0.589830756187439
1775033685758378500,0.41137841796875,9.732208251953125,1.516451358795166,-0.6945167779922485
1775033685809859300,0.462859375,9.667601585388184,1.8005990982055664,-0.5318048596382141
1775033685861340000,0.51433984375,9.713065147399902,1.6827524900436401,-0.4223332107067108
1775033685912820500,0.565820556640625,9.76989459991455,1.5822539329528809,-0.6185446381568909
1775033685964301000,0.617301025390625,9.716654777526855,1.6528422832489014,-0.5641079545021057
1775033686015781600,0.66878173828125,9.69511890411377,1.643869161605835,-0.48394837975502014
1775033686067262500,0.720262451171875,9.738788604736328,1.6109678745269775,-0.6789634227752686
1775033686118743000,0.771742919921875,9.733404159545898,1.6869399547576904,-0.7848458290100098
1775033686170223600,0.8232236328125,9.677172660827637,1.7330018281936646,-0.6813562512397766
1775033686221704200,0.8747041015625,9.7005033493042,1.7276179790496826,-0.8027920126914978
1775033686273184800,0.926184814453125,9.717252731323242,1.6007983684539795,-0.7806583642959595
1775033686324665600,0.97766552734375,9.746564865112305,1.6205391883850098,-0.5724828243255615
1775033686376146200,1.029146240234375,9.710672378540039,1.633101463317871,-0.5288137793540955
1775033686427626800,1.080626708984375,9.732208251953125,1.6971094608306885,-0.6825526356697083
1775033686479107300,1.132107421875,9.707083702087402,1.721037745475769,-0.6191428303718567
1775033686530588200,1.183588134765625,9.708877563476562,1.6947166919708252,-0.6358926296234131
1775033686582068700,1.23506884765625,9.728020668029785,1.6420745849609375,-0.6251249313354492
1775033686633549300,1.28654931640625,9.772287368774414,1.7371892929077148,-0.600000262260437
1775033686685030000,1.33802978515625,9.67777156829834,1.6767704486846924,-0.5647061467170715
1775033686736510500,1.389510498046875,9.625727653503418,1.7976080179214478,-0.4749752879142761
1775033686787991300,1.4409912109375,9.735796928405762,1.8083757162094116,-0.45583271980285645
1775033686839471900,1.492471923828125,9.736993789672852,1.7425731420516968,-0.48454657196998596
1775033686890952400,1.543952392578125,9.7005033493042,1.7282161712646484,-0.49351966381073
1775033686942433000,1.59543310546875,9.715457916259766,1.654038667678833,-0.4630111753940582
1775033686993913900,1.646913818359375,9.684351921081543,1.7647067308425903,-0.2871387302875519
1775033687045394400,1.69839453125,9.747162818908691,1.7730815410614014,-0.3355933725833893
1775033687096875000,1.749875,9.69930648803711,1.731805443763733,-0.28654050827026367
1775033687148355600,1.80135546875,9.736993789672852,1.7198412418365479,-0.37028929591178894
1775033687199836200,1.852836181640625,9.726225852966309,1.7389838695526123,-0.4863412082195282
1775033687251316700,1.904316650390625,9.771689414978027,1.6719847917556763,-0.5222335457801819
1775033687302797600,1.955797607421875,9.645467758178711,1.8287147283554077,-0.23988047242164612
1775033687354278100,2.007278076171875,9.729815483093262,1.7784653902053833,-0.3200400173664093
1775033687405758700,2.0587587890625,9.696913719177246,1.7545372247695923,-0.16271193325519562
1775033687457239300,2.1102392578125,9.692726135253906,1.6863417625427246,0.27337998151779175
1775033687508719900,2.161719970703125,9.729815483093262,1.7641085386276245,0.23688943684101105
1775033687560200700,2.21320068359375,9.707083702087402,1.7581263780593872,0.07477571070194244
1775033687611681300,2.264681396484375,9.658628463745117,1.6037893295288086,-0.1788634955883026
1775033687663161900,2.316161865234375,9.872786521911621,1.7204394340515137,-0.7698906660079956
1775033687714642400,2.367642333984375,9.768099784851074,1.6791633367538452,-0.3481557071208954
1775033687766123000,2.419123046875,9.7669038772583,1.5774682760238647,-0.2147558331489563
1775033687817603600,2.470603515625,9.745368003845215,1.6163517236709595,-0.19561325013637543
1775033687869084400,2.52208447265625,9.641280174255371,1.8789639472961426,-0.15613168478012085
1775033687920565000,2.57356494140625,9.611370086669922,2.0829520225524902,-0.1136590763926506
1775033687972045600,2.625045654296875,9.674779891967773,2.0614166259765625,-0.3684946894645691
1775033688023526100,2.676526123046875,9.68076229095459,1.8239290714263916,-0.44446679949760437
1775033688075006700,2.7280068359375,9.765109062194824,1.7832510471343994,-0.45523449778556824
1775033688126487300,2.7794873046875,9.626923561096191,1.7892330884933472,-0.44327038526535034
1775033688177968000,2.830968017578125,9.626325607299805,2.0207388401031494,-0.4630111753940582
1775033688229448700,2.88244873046875,9.616754531860352,2.292922258377075,-0.5306084156036377
1775033688280929300,2.93392919921875,9.605986595153809,2.046461582183838,-0.6538388133049011
1775033688332409900,2.985409912109375,9.642477035522461,2.0201404094696045,-0.6873382925987244
1775033688383890400,3.036890380859375,9.683155059814453,1.9752750396728516,-0.47557350993156433
1775033688435371000,3.08837109375,9.720842361450195,1.8137595653533936,-0.23748764395713806
1775033688486851600,3.1398515625,9.702896118164062,2.0518453121185303,-0.4426721930503845
1775033688538332200,3.191332275390625,9.731609344482422,1.673181176185608,-0.01136590726673603
1775033688589813000,3.24281298828125,9.747760772705078,2.012363910675049,0.40259242057800293
1775033688641293600,3.29429345703125,9.65803050994873,1.9262222051620483,0.22492532432079315
1775033688692774100,3.345774169921875,9.749555587768555,1.9100706577301025,-0.07357929646968842
1775033688744254700,3.397254638671875,9.67657470703125,1.9974087476730347,-0.5700899958610535
1775033688795735300,3.4487353515625,9.582656860351562,1.8789639472961426,-0.9559326171875
1775033688847215900,3.5002158203125,9.678369522094727,1.9591234922409058,-0.3236292600631714
1775033688898696400,3.551696533203125,9.553942680358887,2.0650060176849365,-0.16510476171970367
1775033688950177300,3.60317724609375,9.744172096252441,1.9752750396728516,-0.4989035129547119
1775033689001657900,3.654657958984375,9.747760772705078,1.7306089401245117,-0.42711883783340454
1775033689053138400,3.706138427734375,9.569496154785156,2.073979139328003,-0.06400800496339798
1775033689104619000,3.757618896484375,9.626325607299805,2.0572292804718018,-0.05383851006627083
1775033689156099600,3.809099609375,9.744172096252441,1.9465612173080444,-0.02273181453347206
1775033689207580200,3.860580078125,9.70229721069336,1.9806588888168335,0.008973085321485996
1775033689259060700,3.912060791015625,9.654440879821777,2.000998020172119,0.22791635990142822
1775033689310541600,3.96354150390625,9.66221809387207,2.038684844970703,0.11485548317432404
1775033689362022100,4.015022216796875,9.690333366394043,2.0105693340301514,-0.053240302950143814
1775033689413502700,4.066502685546875,9.67238712310791,2.0237298011779785,0.13100704550743103
1775033689464983300,4.1179833984375,9.667601585388184,1.9513468742370605,0.1543370634317398
1775033689516463900,4.1694638671875,9.69631576538086,1.968694806098938,0.1944168359041214
1775033689567944400,4.2209443359375,9.656235694885254,2.070389747619629,0.18544375896453857
1775033689619425000,4.272425048828125,9.652647018432617,2.039283037185669,0.037088751792907715
1775033689670905600,4.323905517578125,9.642477035522461,2.0416758060455322,0.10468599200248718
1775033689722386200,4.37538623046875,9.68076229095459,2.101496458053589,0.02871387079358101
1775033689773867000,4.426866943359375,9.675378799438477,2.076371908187866,-0.1740778535604477
1775033689825347600,4.47834765625,9.629316329956055,2.0572292804718018,-0.3002992272377014
1775033689876828200,4.529828125,9.608977317810059,2.1158533096313477,-0.22552353143692017
1775033689928308700,4.581308837890625,9.633503913879395,2.14935302734375,-0.1704886108636856
1775033689979789300,4.632789306640625,9.595816612243652,2.1541385650634766,-0.17288143932819366
1775033690031270000,4.684269775390625,9.628120422363281,2.1439690589904785,-0.16450655460357666
1775033690082750500,4.73575048828125,9.680164337158203,2.0823538303375244,-0.04247260093688965
1775033690134231300,4.787231201171875,9.639486312866211,2.0368902683258057,0.1704886108636856
1775033690185711900,4.8387119140625,9.68375301361084,1.9710876941680908,0.23688943684101105
1775033690237192400,4.8901923828125,9.705288887023926,1.9663020372390747,0.19800607860088348
1775033690288673000,4.941673095703125,9.68076229095459,1.9657038450241089,0.11964113265275955
1775033690340153600,4.993153564453125,9.67657470703125,1.9663020372390747,0.23270200192928314
1775033690391634200,5.04463427734375,9.695717811584473,1.9513468742370605,0.18125630915164948
1775033690443114800,5.09611474609375,9.66102123260498,1.963310956954956,0.1585244983434677
1775033690494595600,5.147595703125,9.68494987487793,1.9950158596038818,0.15493527054786682
1775033690546076000,5.199075927734375,9.65085220336914,1.9770697355270386,0.11006984114646912
1775033690597556700,5.250556640625,9.68794059753418,1.9938194751739502,0.11545369029045105
1775033690649037300,5.302037353515625,9.647860527038574,2.046461582183838,0.14297115802764893
1775033690700518000,5.353517822265625,9.68076229095459,2.0213370323181152,0.129810631275177
1775033690751998500,5.40499853515625,9.68375301361084,1.9567307233810425,0.07058826833963394
1775033690803479000,5.45647900390625,9.684351921081543,2.0315065383911133,0.08195417374372482
1775033690854959600,5.507959716796875,9.630513191223145,1.9561325311660767,-0.12382857501506805
1775033690906440200,5.559440185546875,9.66520881652832,2.062613010406494,-0.006580262444913387
1775033690957921000,5.610921142578125,9.638887405395508,2.0476579666137695,0.06759724020957947
1775033691009401600,5.662401611328125,9.638289451599121,2.083550214767456,0.08315058797597885
1775033691060882200,5.713882080078125,9.620942115783691,2.14935302734375,0.019740786403417587
1775033691112362800,5.76536279296875,9.631709098815918,2.052443504333496,-0.12143574655056
1775033691163843300,5.81684326171875,9.7005033493042,2.087737798690796,-0.05742774158716202
1775033691215324000,5.868323974609375,9.68076229095459,1.960319995880127,0.014356935396790504
1775033691266804500,5.919804443359375,9.66520881652832,1.9908283948898315,-0.018544375896453857
1775033691318285300,5.971285400390625,9.694520950317383,1.9962122440338135,-0.037088751792907715
1775033691369766000,6.022765869140625,9.644271850585938,1.9573289155960083,-0.06340979784727097
1775033691421246500,6.07424658203125,9.658628463745117,2.0985054969787598,0.07477571070194244
1775033691472727000,6.12572705078125,9.636494636535645,2.1337995529174805,0.004785645287483931
1775033691524207600,6.17720751953125,9.635298728942871,1.9938194751739502,0.0005982056609354913
1775033691575688200,6.228688232421875,9.675378799438477,2.038684844970703,0.062213387340307236
1775033691627168800,6.280168701171875,9.65803050994873,2.021935224533081,-0.048454657196998596
1775033691678649300,6.3316494140625,9.711270332336426,1.933998942375183,0.024526432156562805
1775033691730130200,6.383130126953125,9.68494987487793,1.9471594095230103,-0.009571290574967861
1775033691781610800,6.43461083984375,9.675976753234863,1.9986051321029663,-0.03170489892363548
1775033691833091300,6.48609130859375,9.659226417541504,2.022533416748047,-0.14057832956314087
1775033691884572000,6.537572021484375,9.68076229095459,2.0380866527557373,-0.2183450609445572
1775033691936052500,6.589052490234375,9.645467758178711,2.0446670055389404,-0.26440688967704773
1775033691987533000,6.640532958984375,9.623932838439941,2.046461582183838,-0.31106695532798767
1775033692039014000,6.692013916015625,9.66640567779541,2.072782516479492,-0.2841476798057556
1775033692090494500,6.743494384765625,9.617950439453125,2.0691933631896973,-0.2763710021972656
1775033692141975000,6.79497509765625,9.653244972229004,2.0691933631896973,-0.2602194547653198
1775033692193455600,6.84645556640625,9.6795654296875,2.0404794216156006,-0.09571290761232376
1775033692244936200,6.897936279296875,9.663414001464844,1.9902302026748657,0.008374879136681557
1775033692296416800,6.949416748046875,9.710074424743652,1.947757601737976,0.054436713457107544
1775033692347897300,7.0008974609375,9.701101303100586,1.9154545068740845,0.10229317098855972
1775033692399378200,7.052378173828125,9.717252731323242,1.973480463027954,0.07597211748361588
1775033692450858800,7.103858642578125,9.67777156829834,1.970489501953125,0.17288143932819366
1775033692502339300,7.15533935546875,9.691530227661133,1.9938194751739502,0.0933200865983963
1775033692553820000,7.20681982421875,9.70229721069336,1.9645073413848877,-0.03888336941599846
1775033692605300500,7.258300537109375,9.647860527038574,1.999801516532898,-0.2153540402650833
1775033692656781000,7.309781005859375,9.671191215515137,2.0548365116119385,-0.29730820655822754
1775033692708262000,7.361261962890625,9.605986595153809,2.0823538303375244,-0.20757736265659332
1775033692759742500,7.412742431640625,9.674779891967773,2.1708884239196777,-0.21355941891670227
1775033692811223000,7.46422314453125,9.565906524658203,2.187039852142334,-0.373878538608551
1775033692862703600,7.51570361328125,9.632308006286621,2.148754835128784,-0.46719861030578613
1775033692914184200,7.56718408203125,9.604191780090332,2.1918256282806396,-0.389431893825531
1775033692965664800,7.618664794921875,9.641280174255371,2.200798511505127,-0.4175475537776947
1775033693017145300,7.670145263671875,9.573683738708496,2.1828525066375732,-0.38344982266426086
1775033693068626200,7.721626220703125,9.653244972229004,2.2205393314361572,-0.3415754437446594
1775033693120106800,7.773106689453125,9.607781410217285,2.1589243412017822,-0.3846462368965149
1775033693171587300,7.82458740234375,9.65384292602539,2.1194427013397217,-0.2638086974620819
1775033693223068000,7.87606787109375,9.630513191223145,2.1266210079193115,-0.16510476171970367
1775033693274548500,7.927548583984375,9.644869804382324,2.162513494491577,-0.14895321428775787
1775033693326029000,7.979029052734375,9.634101867675781,2.134995937347412,-0.17347964644432068
1775033693377509600,8.030509521484374,9.647860527038574,2.108675003051758,-0.16749759018421173
1775033693428990500,8.081990478515625,9.633503913879395,2.0715861320495605,-0.15134602785110474
1775033693480471000,8.133470947265625,9.65683364868164,2.1379871368408203,-0.14057832956314087
1775033693531951600,8.18495166015625,9.634101867675781,2.0967109203338623,-0.14117653667926788
1775033693583432200,8.23643212890625,9.664012908935547,2.084746837615967,-0.18843477964401245
1775033693634912800,8.287912841796874,9.619745254516602,2.1780667304992676,-0.2392822653055191
1775033693686393300,8.339393310546875,9.616155624389648,2.059023857116699,-0.1136590763926506
1775033693737874000,8.3908740234375,9.674779891967773,2.303689956665039,-0.24586252868175507
1775033693789354500,8.4423544921875,9.615557670593262,1.8598214387893677,-0.13220344483852386
1775033693840835300,8.49383544921875,9.675976753234863,2.1655044555664062,-0.22612173855304718
1775033693892316000,8.54531591796875,9.617352485656738,2.14935302734375,-0.1178465187549591
1775033693943796500,8.59679638671875,9.680164337158203,2.1469600200653076,-0.17946170270442963
1775033693995277000,8.648277099609375,9.762118339538574,2.210369825363159,-0.19800607860088348
1775033694046757600,8.699757568359376,9.53779125213623,2.0440688133239746,0.028115665540099144
1775033694098238200,8.75123828125,9.698708534240723,2.184048891067505,-0.04666004329919815
1775033694149718800,8.80271875,9.640084266662598,2.0919251441955566,-0.14356936514377594
1775033694201199400,8.854199462890625,9.669994354248047,2.1230318546295166,-0.44027936458587646
1775033694252680200,8.90568017578125,9.571290969848633,2.0955145359039307,-0.3158525824546814
1775033694304160800,8.957160888671876,9.710074424743652,2.2809581756591797,0.23030917346477509
1775033694355641300,9.008641357421874,9.562317848205566,2.2654049396514893,0.24586252868175507
1775033694407122000,9.060121826171875,9.589835166931152,2.0608184337615967,-0.4707878530025482
1775033694458602500,9.1116025390625,9.632905960083008,2.2606191635131836,-0.4133601188659668
1775033694510083000,9.1630830078125,9.64367389678955,2.338984251022339,0.9469595551490784
1775033694561563600,9.214563720703126,9.55633544921875,2.2947168350219727,0.031106693670153618
1775033694613044200,9.266044189453124,9.56889820098877,2.108675003051758,0.1782652884721756
1775033694664525000,9.317525146484375,9.724431037902832,2.0135602951049805,-0.11545369029045105
1775033694716005600,9.369005615234375,9.628120422363281,2.145763635635376,0.16869398951530457
1775033694767486200,9.420486328125,9.708279609680176,2.0955145359039307,0.23270200192928314
1775033694818966800,9.471966796875,9.717850685119629,2.1122641563415527,0.2147558331489563
1775033694870447400,9.523447265625,9.524032592773438,2.1583259105682373,0.1136590763926506
1775033694921928000,9.574927978515625,9.68913745880127,2.2570300102233887,0.23629122972488403
1775033694973408500,9.626408447265625,9.56471061706543,2.14935302734375,0.11485548317432404
1775033695024889000,9.67788916015625,9.671789169311523,2.146361827850342,-0.07597211748361588
1775033695076369700,9.72936962890625,9.622138023376465,2.138585329055786,-0.20159530639648438
1775033695127850200,9.780850341796874,9.614959716796875,2.210369825363159,-0.15972091257572174
1775033695179330800,9.832330810546875,9.605388641357422,2.276770830154419,-0.14715859293937683
1775033695230811400,9.883811279296875,9.586843490600586,2.3018953800201416,-0.27816563844680786
1775033695282292200,9.935292236328126,9.618548393249512,2.2510478496551514,-0.3445664644241333
1775033695333772800,9.986772705078126,9.586843490600586,2.2235305309295654,-0.2548356056213379
1775033695385253400,10.03825341796875,9.625727653503418,2.2785654067993164,-0.11186445504426956
1775033695436734000,10.08973388671875,9.589835166931152,2.1852452754974365,-0.11306086927652359
1775033695488214500,10.141214599609375,9.642477035522461,2.1445672512054443,-0.053240302950143814
1775033695539695000,10.192695068359376,9.65085220336914,2.1337995529174805,0.048454657196998596
1775033695591175700,10.24417578125,9.637691497802734,2.1134605407714844,0.13698910176753998
1775033695642656300,10.29565625,9.668798446655273,2.0811574459075928,0.18305093050003052
1775033695694136800,10.34713671875,9.662816047668457,2.032104730606079,0.2392822653055191
1775033695745617400,10.398617431640625,9.678967475891113,2.028515338897705,0.2847459018230438
1775033695797098000,10.450097900390626,9.688538551330566,1.960319995880127,0.3236292600631714
1775033695848578600,10.50157861328125,9.70349407196045,2.0171494483947754,0.34636107087135315
1775033695900059100,10.55305908203125,9.65085220336914,2.011765718460083,0.3409772217273712
1775033695951539700,10.604539794921875,9.6795654296875,2.059622049331665,0.26500511169433594
1775033696003020300,10.656020263671875,9.671789169311523,2.0745773315429688,0.2476571500301361
1775033696054500900,10.7075009765625,9.661619186401367,2.0578274726867676,0.15553347766399384
1775033696105981700,10.758981689453124,9.628718376159668,2.1278176307678223,0.06400800496339798
1775033696157462300,10.810462158203125,9.65085220336914,2.155933141708374,-0.05802594870328903
1775033696208942800,10.86194287109375,9.638887405395508,2.1649062633514404,-0.14835500717163086
1775033696260423400,10.91342333984375,9.583852767944336,2.2205393314361572,-0.13698910176753998
1775033696311904000,10.964904052734376,9.610174179077148,2.237887382507324,-0.2063809484243393
1775033696363384600,11.016384521484374,9.604191780090332,2.26959228515625,-0.4133601188659668
1775033696414865200,11.067865234375,9.562317848205566,2.2809581756591797,-0.3577269911766052
1775033696466345700,11.119345703125,9.67238712310791,2.272583246231079,-0.3044866919517517
1775033696517826300,11.170826416015625,9.549755096435547,2.1517457962036133,-0.12203395366668701
1775033696569307000,11.222306884765626,9.674779891967773,2.210369825363159,-0.026919255033135414
1775033696620787500,11.273787353515624,9.608977317810059,2.152942180633545,0.022133609279990196
1775033696672268000,11.32526806640625,9.6795654296875,2.1302103996276855,0.15672987699508667
1775033696723748600,11.37674853515625,9.642477035522461,2.108675003051758,0.20578274130821228
1775033696775229200,11.428229248046875,9.65384292602539,2.1415762901306152,0.1788634955883026
1775033696826709800,11.479709716796876,9.642477035522461,2.1337995529174805,0.15254244208335876
1775033696878190300,11.5311904296875,9.663414001464844,2.1164517402648926,0.09032905846834183
1775033696929671000,11.5826708984375,9.635298728942871,2.1296122074127197,0.05802594870328903
1775033696981151500,11.6341513671875,9.617352485656738,2.134995937347412,0.05563312768936157
1775033697032632000,11.685632080078125,9.650253295898438,2.131406784057617,0.03888336941599846
1775033697084112600,11.737112548828126,9.728618621826172,2.148754835128784,-0.020937198773026466
1775033697135593200,11.78859326171875,9.952347755432129,2.072782516479492,0.1453639715909958
1775033697187073800,11.84007373046875,9.067601203918457,2.3024935722351074,-0.08195417374372482
1775033697238554600,11.8915546875,9.708877563476562,2.292922258377075,-0.01734796352684498
1775033697290035200,11.94303515625,9.602396965026855,2.263011932373047,0.013160524889826775
1775033697341515800,11.994515869140624,9.561718940734863,2.2019951343536377,-0.1657029688358307
1775033697392996400,12.045996337890625,9.742975234985352,2.2055842876434326,-0.03290131315588951
1775033697444477000,12.097476806640625,9.66819953918457,2.190030813217163,-0.11425728350877762
1775033697495957500,12.14895751953125,9.607781410217285,2.221137523651123,0.001794616924598813
1775033697547438000,12.20043798828125,9.615557670593262,2.259422779083252,0.07118647545576096
1775033697598918700,12.251918701171874,9.568299293518066,2.328216314315796,0.02153540402650833
1775033697650399200,12.303399169921875,9.608977317810059,2.3359930515289307,-0.06400800496339798
1775033697701879800,12.3548798828125,9.569496154785156,2.3096721172332764,-0.020338991656899452
1775033697753360400,12.4063603515625,9.591629981994629,2.3192434310913086,-0.001794616924598813
1775033697804841000,12.457841064453126,9.608379364013672,2.3443679809570312,0.04546362906694412
1775033697856321500,12.509321533203124,9.669994354248047,2.2546372413635254,0.04666004329919815
1775033697907802000,12.560802001953125,9.54796028137207,2.3030917644500732,0.08315058797597885
1775033697959282700,12.61228271484375,9.68794059753418,2.234896421432495,0.1860419660806656
1775033698010763300,12.66376318359375,9.576674461364746,2.3096721172332764,0.16809579730033875
1775033698062243800,12.715243896484376,9.604789733886719,2.300100803375244,0.17228323221206665
1775033698113724400,12.766724365234374,9.525228500366211,2.307279348373413,0.2027917206287384
1775033698165205000,12.818205078125,9.473783493041992,2.393420934677124,-0.04007977992296219
1775033698216685600,12.869685546875,9.44626522064209,2.4047868251800537,0.11665010452270508
1775033698268166100,12.921166259765625,9.521040916442871,2.379063844680786,0.05024927482008934
1775033698319646700,12.972646728515626,9.624530792236328,2.3922245502471924,-0.07956135272979736
1775033698371127300,13.024127197265624,9.750752449035645,2.272583246231079,-0.08853443711996078
1775033698422608000,13.07560791015625,9.628718376159668,2.173879384994507,-0.15493527054786682
1775033698474088700,13.127088623046875,9.648459434509277,2.225325107574463,-0.08135596662759781
1775033698525569300,13.1785693359375,9.651450157165527,2.2127628326416016,-0.21774685382843018
1775033698577049900,13.2300498046875,9.600603103637695,2.215155601501465,-0.2147558331489563
1775033698628530400,13.281530517578124,9.637093544006348,2.2642083168029785,-0.22193430364131927
1775033698680011000,13.333010986328125,9.581459999084473,2.2642083168029785,-0.15134602785110474
1775033698731491600,13.38449169921875,9.654440879821777,2.2438695430755615,-0.08793623000383377
1775033698782972200,13.43597216796875,9.600603103637695,2.1960129737854004,-0.008374879136681557
1775033698834452700,13.48745263671875,9.646066665649414,2.2091734409332275,0.14117653667926788
1775033698885933300,13.538933349609374,9.631709098815918,2.1505494117736816,0.24466611444950104
1775033698937414000,13.590413818359375,9.68375301361084,2.1260228157043457,0.24945175647735596
1775033698988894500,13.64189453125,9.638289451599121,2.1003000736236572,0.2512463629245758
1775033699040375000,13.693375,9.681360244750977,2.1242282390594482,0.18723836541175842
1775033699091855600,13.744855712890624,9.630513191223145,2.155933141708374,0.31405797600746155
1775033699143336200,13.796336181640624,9.636494636535645,2.1158533096313477,0.25722843408584595
1775033699194816800,13.847816650390625,9.65503978729248,2.163709878921509,-0.006580262444913387
1775033699246297300,13.89929736328125,9.600603103637695,2.1876380443573,-0.12801600992679596
1775033699297778000,13.95077783203125,9.643074989318848,2.2259232997894287,-0.1579262912273407
1775033699349258500,14.002258544921874,9.573084831237793,2.2582263946533203,-0.13938191533088684
1775033699400739000,14.053739013671875,9.621540069580078,2.2654049396514893,-0.2105683982372284
1775033699452219600,14.1052197265625,9.582656860351562,2.2845473289489746,-0.3068794906139374
1775033699503700200,14.1567001953125,9.620942115783691,2.273181438446045,-0.1944168359041214
1775033699555180800,14.208180908203126,9.578469276428223,2.259422779083252,-0.06640082597732544
1775033699606661400,14.259661376953124,9.647262573242188,2.2307088375091553,-0.049651071429252625
1775033699658142000,14.311141845703125,9.594022750854492,2.1984057426452637,0.019142581149935722
1775033699709622500,14.36262255859375,9.644271850585938,2.222334146499634,0.006580262444913387
1775033699761103000,14.41410302734375,9.628120422363281,2.1672990322113037,0.129810631275177
1775033699812583700,14.465583740234376,9.65683364868164,2.190030813217163,0.10348957777023315
1775033699864064300,14.517064208984374,9.614959716796875,2.152942180633545,0.15254244208335876
1775033699915544800,14.568544921875,9.653244972229004,2.1296122074127197,0.19322042167186737
1775033699967025400,14.620025390625,9.660423278808594,2.103889226913452,0.2470589429140091
1775033700018506000,14.671506103515625,9.629914283752441,2.1128623485565186,0.18723836541175842
1775033700069986600,14.722986572265626,9.671191215515137,2.122433662414551,0.2470589429140091
1775033700121467100,14.774467041015624,9.64367389678955,2.108675003051758,0.25423741340637207
1775033700172948000,14.825947998046875,9.619147300720215,2.1098713874816895,0.24825534224510193
1775033700224428500,14.877428466796875,9.69212818145752,2.0955145359039307,0.22612173855304718
1775033700275909000,14.9289091796875,9.615557670593262,2.0919251441955566,0.10229317098855972
1775033700327389700,14.9803896484375,9.65503978729248,2.170290231704712,0.10468599200248718
1775033700378870300,15.031870361328124,9.611968994140625,2.1684954166412354,-0.028115665540099144
1775033700430350800,15.083350830078125,9.632905960083008,2.2055842876434326,-0.01136590726673603
1775033700481831400,15.13483154296875,9.587442398071289,2.2402801513671875,-0.06699903309345245
1775033700533312000,15.18631201171875,9.630513191223145,2.2301106452941895,-0.1381855010986328
1775033700584792600,15.23779248046875,9.618548393249512,2.217548370361328,-0.22372891008853912
1775033700636273200,15.289273193359374,9.600004196166992,2.263011932373047,-0.13459627330303192
1775033700687753700,15.340753662109375,9.5862455368042,2.2654049396514893,-0.09032905846834183
1775033700739234300,15.392234375,9.635298728942871,2.231905221939087,-0.13040883839130402
1775033700790715000,15.44371484375,9.603593826293945,2.225325107574463,-0.07896314561367035
1775033700842195500,15.495195556640626,9.619745254516602,2.200798511505127,-0.0077766734175384045
1775033700893676000,15.546676025390624,9.623334884643555,2.204387903213501,0.014955141581594944
1775033700945156600,15.598156494140625,9.638289451599121,2.210369825363159,0.05802594870328903
1775033700996637200,15.64963720703125,9.623334884643555,2.1535403728485107,0.06520441919565201
1775033701048117800,15.70111767578125,9.667601585388184,2.148754835128784,0.1136590763926506
1775033701099598300,15.752598388671874,9.622735977172852,2.1517457962036133,0.1501496136188507
1775033701151079000,15.804078857421874,9.654440879821777,2.1194427013397217,0.13220344483852386
1775033701202559500,15.8555595703125,9.656235694885254,2.1200408935546875,0.15732808411121368
1775033701254040000,15.9070400390625,9.630513191223145,2.173281192779541,0.20997019112110138
1775033701305520600,15.958520751953126,9.672985076904297,2.103889226913452,0.26440688967704773
1775033701357001200,16.010001220703124,9.639486312866211,2.1026928424835205,0.18544375896453857
1775033701408481800,16.061481689453124,9.626923561096191,2.15653133392334,0.12622138857841492
1775033701459962400,16.11296240234375,9.65384292602539,2.166102647781372,0.10229317098855972
1775033701511443000,16.16444287109375,9.55753231048584,2.2235305309295654,0.19322042167186737
1775033701562923800,16.215923828125,9.740582466125488,2.0656042098999023,0.4331009089946747
1775033701614404400,16.267404296875,9.600004196166992,2.1242282390594482,0.18783657252788544
1775033701665885000,16.318885009765626,9.736993789672852,2.091326951980591,-0.07597211748361588
1775033701717365500,16.370365478515627,9.605388641357422,2.0033907890319824,-0.10169496387243271
1775033701768846000,16.42184619140625,9.681360244750977,2.183450698852539,-0.1543370634317398
1775033701820326700,16.47332666015625,9.5862455368042,2.2337000370025635,-0.2027917206287384
1775033701871807000,16.524806884765624,9.613762855529785,2.242672920227051,-0.35533416271209717
1775033701923287600,16.57628759765625,9.57069206237793,2.3264217376708984,-0.35054850578308105
1775033701974768400,16.627768310546877,9.612566947937012,2.3018953800201416,-0.35832518339157104
1775033702026249000,16.6792490234375,9.54078197479248,2.2995026111602783,-0.20159530639648438
1775033702077729300,16.730729248046874,9.616754531860352,2.3234307765960693,-0.13100704550743103
1775033702129210000,16.782210205078126,9.589835166931152,2.26959228515625,-0.04247260093688965
1775033702180690700,16.833690673828126,9.641280174255371,2.231905221939087,-0.10289137065410614
1775033702232171300,16.885171142578123,9.613762855529785,2.2331018447875977,-0.07238288223743439
1775033702283651800,16.93665185546875,9.633503913879395,2.1924238204956055,0.01196411345154047
1775033702335132400,16.98813232421875,9.654440879821777,2.1744775772094727,0.08075776696205139
1775033702386613000,17.039613037109376,9.617352485656738,2.1445672512054443,0.08195417374372482
1775033702438093600,17.091093505859376,9.667601585388184,2.169692039489746,0.11485548317432404
1775033702489574100,17.14257421875,9.618548393249512,2.1780667304992676,0.053240302950143814
1775033702541054700,17.1940546875,9.650253295898438,2.18045973777771,0.06400800496339798
1775033702592535300,17.245535400390626,9.602396965026855,2.191227436065674,0.02871387079358101
1775033702644015900,17.297015869140626,9.656235694885254,2.121835470199585,0.1010967567563057
1775033702695496400,17.348496337890627,9.618548393249512,2.1948165893554688,0.09212367236614227
1775033702746976800,17.399976806640623,9.631709098815918,2.213959217071533,0.08614161610603333
1775033702798457300,17.451457275390624,9.641280174255371,2.222334146499634,-0.07597211748361588
1775033702849938000,17.50293798828125,9.622735977172852,2.1577277183532715,-0.02273181453347206
1775033702901418500,17.55441845703125,9.635298728942871,2.2055842876434326,-0.04486542567610741
1775033702952899000,17.605899169921877,9.606584548950195,2.2402801513671875,-0.04785645380616188
1775033703004379600,17.657379638671873,9.622138023376465,2.2301106452941895,-0.251844584941864
1775033703055860200,17.708860107421874,9.613762855529785,2.2504496574401855,-0.25244277715682983
1775033703107340800,17.7603408203125,9.603593826293945,2.2534406185150146,-0.2105683982372284
1775033703158821400,17.8118212890625,9.600603103637695,2.2606191635131836,-0.12801600992679596
1775033703210302000,17.863302001953127,9.613762855529785,2.231905221939087,-0.1178465187549591
1775033703261782500,17.914782470703123,9.601201057434082,2.237887382507324,-0.1010967567563057
1775033703313263000,17.96626318359375,9.645467758178711,2.210369825363159,-0.07597211748361588
1775033703364743700,18.01774365234375,9.616155624389648,2.1888344287872314,0.005383851006627083
1775033703416224300,18.069224365234376,9.64367389678955,2.2091734409332275,0.07417750358581543
1775033703467704800,18.120704833984377,9.624530792236328,2.1684954166412354,0.11186445504426956
1775033703519185400,18.172185302734373,9.65803050994873,2.15653133392334,0.12143574655056
1775033703570666000,18.223666015625,9.625727653503418,2.132603168487549,0.1417747437953949
1775033703622146600,18.275146484375,9.638887405395508,2.1511476039886475,0.13040883839130402
1775033703673627100,18.326627197265626,9.648459434509277,2.1278176307678223,0.13639089465141296
1775033703725107700,18.378107666015627,9.635298728942871,2.1589243412017822,0.09391828626394272
1775033703776588300,18.42958837890625,9.64367389678955,2.14935302734375,0.047258246690034866
1775033703828068900,18.48106884765625,9.609575271606445,2.176870346069336,0.031106693670153618
1775033703879549200,18.532549072265624,9.638289451599121,2.1643080711364746,0.03529413416981697
1775033703931029800,18.58402978515625,9.623334884643555,2.1720848083496094,-0.030508488416671753
1775033703982510300,18.63551025390625,9.636494636535645,2.1589243412017822,-0.004785645287483931
1775033704033991000,18.686990966796873,9.64965534210205,2.1894326210021973,-0.06939185410737991
1775033704085471500,18.738471435546874,9.614959716796875,2.169692039489746,0.006580262444913387
1775033704136952000,18.7899521484375,9.647860527038574,2.1852452754974365,0.018544375896453857
1775033704188432600,18.8414326171875,9.639486312866211,2.1948165893554688,0.004187439568340778
1775033704239913200,18.892913330078127,9.630513191223145,2.152942180633545,-0.009571290574967861
1775033704291393800,18.944393798828123,9.607781410217285,2.179263114929199,0.13938191533088684
1775033704342874400,18.995874267578124,9.652048110961914,2.184048891067505,0.05922235921025276
1775033704394355000,19.04735498046875,9.613762855529785,2.1433708667755127,-0.05802594870328903
1775033704445835500,19.09883544921875,9.65683364868164,2.163111686706543,-0.014955141581594944
1775033704497316000,19.150316162109377,9.608977317810059,2.186441659927368,0.01615155301988125
1775033704548796700,19.201796630859373,9.69930648803711,2.1589243412017822,-0.0568295381963253
1775033704600277000,19.253277099609374,10.159924507141113,1.9369899034500122,-0.046061836183071136
1775033704651757600,19.304757568359374,9.442078590393066,2.0673987865448,0.2021935135126114
1775033704703238100,19.356238037109375,9.531808853149414,2.273181438446045,0.3720839321613312
1775033704754718700,19.40771875,9.340383529663086,2.3982064723968506,0.15493527054786682
1775033704806199300,19.45919921875,9.313464164733887,2.4460630416870117,0.1178465187549591
1775033704857680000,19.510679931640624,9.376275062561035,2.430509567260742,0.15972091257572174
1775033704909160400,19.562160400390624,10.05703353881836,2.349153518676758,-0.18843477964401245
1775033704960641000,19.61364111328125,9.505488395690918,2.3431715965270996,-0.27696922421455383
1775033705012121600,19.66512158203125,9.635298728942871,2.1918256282806396,-0.06041877344250679
1775033705063602200,19.716602294921874,9.608977317810059,2.222334146499634,-0.3756731450557709
1775033705115082800,19.768082763671874,9.686744689941406,2.3395824432373047,-0.372682124376297
1775033705166563300,19.819563232421874,9.546764373779297,2.239083766937256,-0.20398813486099243
1775033705218044000,19.8710439453125,9.602995872497559,2.2953150272369385,-0.21296121180057526
1775033705269524500,19.9225244140625,9.720243453979492,2.294118642807007,-0.1010967567563057
1775033705321004800,19.9740048828125,9.69631576538086,2.1481566429138184,0.01615155301988125
1775033705372485400,20.0254853515625,9.494720458984375,2.23848557472229,0.13698910176753998
1775033705423966000,20.076966064453124,9.585647583007812,2.331207513809204,0.06340979784727097
1775033705475446500,20.128446533203125,9.525827407836914,2.349153518676758,0.15134602785110474
1775033705526927000,20.179927001953125,9.570094108581543,2.3084757328033447,0.20757736265659332
1775033705578407700,20.23140771484375,9.622138023376465,2.2737796306610107,-0.010767702013254166
1775033705629888300,20.28288818359375,9.610174179077148,2.255833625793457,-0.03888336941599846
1775033705681368800,20.334368896484374,9.638887405395508,2.2438695430755615,-0.019142581149935722
1775033705732849400,20.385849365234375,9.629914283752441,2.1948165893554688,-0.050847481936216354
1775033705784330000,20.437330078125,9.663414001464844,2.2169501781463623,-0.07956135272979736
1775033705835810600,20.488810546875,9.638887405395508,2.1828525066375732,-0.014955141581594944
1775033705887291100,20.540291015625,9.7998046875,2.1888344287872314,-0.01136590726673603
1775033705938771700,20.591771728515624,10.002596855163574,2.011765718460083,0.09152546525001526
1775033705990252300,20.643252197265625,9.41336441040039,2.15653133392334,0.3236292600631714
1775033706041732900,20.69473291015625,9.389435768127441,2.3886351585388184,0.41934216022491455
1775033706093213400,20.74621337890625,9.31884765625,2.42093825340271,0.22911277413368225
1775033706144694000,20.797694091796874,9.245866775512695,2.4502503871917725,0.19142581522464752
1775033706196174600,20.849174560546874,9.973882675170898,2.3575284481048584,0.06340979784727097
1775033706247655000,20.900655029296875,9.584450721740723,2.396411895751953,-0.2063809484243393
1775033706299135500,20.952135498046875,9.643074989318848,2.2031915187835693,0.11246266216039658
1775033706350616000,21.003615966796875,9.623932838439941,2.121835470199585,-0.3158525824546814
1775033706402096600,21.0550966796875,9.691530227661133,2.2582263946533203,-0.3152543902397156
1775033706453577200,21.1065771484375,9.604789733886719,2.241476535797119,-0.16331014037132263
1775033706505057800,21.158057861328125,9.608977317810059,2.2408783435821533,-0.21355941891670227
1775033706556538400,21.209538330078125,9.604191780090332,2.3096721172332764,-0.07238288223743439
1775033706608019000,21.26101904296875,9.629316329956055,2.2498514652252197,0.06819544732570648
1775033706659499500,21.31249951171875,9.590433120727539,2.2121646404266357,0.020937198773026466
1775033706710980000,21.36397998046875,9.65085220336914,2.2025933265686035,-0.054436713457107544
1775033706762460700,21.415460693359375,9.641280174255371,2.163111686706543,0.0687936544418335
1775033706813941200,21.466941162109375,9.614959716796875,2.155334949493408,0.18125630915164948
1775033706865421800,21.518421875,9.655637741088867,2.1822543144226074,0.12023933976888657
1775033706916902400,21.56990234375,9.643074989318848,2.15653133392334,0.12801600992679596
1775033706968383000,21.621383056640624,9.64965534210205,2.1302103996276855,0.11066804826259613
1775033707019863600,21.672863525390625,9.644271850585938,2.1511476039886475,0.15254244208335876
1775033707071344000,21.72434423828125,9.624530792236328,2.1230318546295166,0.129810631275177
1775033707122824400,21.775824462890625,9.66520881652832,2.152942180633545,0.09152546525001526
1775033707174305000,21.827304931640626,9.620942115783691,2.160120725631714,0.08135596662759781
1775033707225785600,21.87878564453125,9.636494636535645,2.1583259105682373,0.04666004329919815
1775033707277266200,21.93026611328125,9.656235694885254,2.160120725631714,-0.062213387340307236
1775033707328746800,21.981746826171875,9.608977317810059,2.18045973777771,-0.039481572806835175
1775033707380227300,22.033227294921875,9.64965534210205,2.2025933265686035,-0.05563312768936157
1775033707431708000,22.0847080078125,9.583852767944336,2.2402801513671875,-0.06759724020957947
1775033707483188500,22.1361884765625,9.632308006286621,2.2618155479431152,-0.09032905846834183
1775033707534669000,22.1876689453125,9.601799011230469,2.2474586963653564,-0.10408778488636017
1775033707586149600,22.239149658203125,9.628120422363281,2.227717876434326,-0.001794616924598813
1775033707637630200,22.290630126953126,9.610772132873535,2.2187447547912598,-0.001794616924598813
1775033707689110800,22.34211083984375,9.64367389678955,2.210968017578125,0.018544375896453857
1775033707740591400,22.39359130859375,9.615557670593262,2.194218397140503,-0.010767702013254166
1775033707792072000,22.445072021484375,9.6466646194458,2.1948165893554688,0.049651071429252625
1775033707843552500,22.496552490234375,9.610772132873535,2.2025933265686035,0.062213387340307236
1775033707895033000,22.548033203125,9.633503913879395,2.2157537937164307,0.11126625537872314
1775033707946513400,22.599513427734376,9.635298728942871,2.1714866161346436,0.12861421704292297
1775033707997994000,22.650993896484376,9.617950439453125,2.163111686706543,0.07896314561367035
1775033708049474600,22.702474609375,9.638887405395508,2.1756739616394043,0.09690931439399719
1775033708100955100,22.753955078125,9.638289451599121,2.1672990322113037,0.026919255033135414
1775033708152435700,22.805435791015626,9.626325607299805,2.2121646404266357,0.13220344483852386
1775033708203916300,22.856916259765626,9.613762855529785,2.218146562576294,0.1902294009923935
1775033708255396900,22.90839697265625,9.629914283752441,2.1589243412017822,0.10468599200248718
1775033708306877400,22.95987744140625,9.654440879821777,2.1750757694244385,-0.03409772366285324
1775033708358358000,23.01135791015625,9.601799011230469,2.1930220127105713,-0.03170489892363548
1775033708409838600,23.062838623046876,9.661619186401367,2.241476535797119,-0.05922235921025276
1775033708461319200,23.114319091796876,9.543174743652344,2.2366909980773926,-0.19322042167186737
1775033708512799700,23.1657998046875,9.637093544006348,2.286342144012451,-0.2027917206287384
1775033708564280300,23.2172802734375,9.625727653503418,2.2498514652252197,-0.23389841616153717
1775033708615760600,23.2687607421875,9.636494636535645,2.059622049331665,-0.13698910176753998
1775033708667241200,23.3202412109375,9.612566947937012,2.1918256282806396,-0.04007977992296219
1775033708718721800,23.3717216796875,9.576674461364746,2.307279348373413,0.019142581149935722
1775033708770202400,23.423202392578126,9.597611427307129,2.2893331050872803,0.11724831163883209
1775033708821683000,23.474682861328127,9.591031074523926,2.338385820388794,0.18484555184841156
1775033708873163500,23.52616357421875,9.619745254516602,2.1684954166412354,0.1657029688358307
1775033708924644000,23.57764404296875,9.709476470947266,2.035693883895874,-0.007178467698395252
1775033708976124700,23.629124755859376,9.667601585388184,2.1266210079193115,0.008374879136681557
1775033709027605200,23.680605224609376,9.633503913879395,2.1780667304992676,0.04785645380616188
1775033709079085800,23.7320859375,9.610174179077148,2.222334146499634,-0.07597211748361588
1775033709130566400,23.78356640625,9.626325607299805,2.245065927505493,-0.10289137065410614
1775033709182046700,23.835046630859374,9.626923561096191,2.214557409286499,-0.15732808411121368
1775033709233527300,23.88652734375,9.634700775146484,2.194218397140503,-0.1704886108636856
1775033709285008000,23.9380078125,9.619147300720215,2.193620204925537,-0.19561325013637543
1775033709336488400,23.989488525390627,9.604191780090332,2.248655080795288,-0.2153540402650833
1775033709387969000,24.040968994140623,9.634700775146484,2.235494613647461,-0.24107688665390015
1775033709439449600,24.09244970703125,9.628120422363281,2.1858434677124023,-0.20099709928035736
1775033709490930200,24.14393017578125,9.611968994140625,2.242672920227051,-0.10229317098855972
1775033709542410800,24.19541064453125,9.597013473510742,2.2307088375091553,-0.03529413416981697
1775033709593891300,24.246891357421877,9.653244972229004,2.2408783435821533,-0.052043892443180084
1775033709645372000,24.298371826171874,9.569496154785156,2.307279348373413,-0.11665010452270508
1775033709696852200,24.349852294921874,9.613164901733398,2.249253273010254,-0.1537388563156128
1775033709748332800,24.401332763671874,9.651450157165527,2.2187447547912598,-0.28175488114356995
1775033709799813400,24.4528134765625,9.606584548950195,2.1379871368408203,-0.20997019112110138
1775033709851294000,24.5042939453125,9.655637741088867,2.1960129737854004,-0.16929219663143158
1775033709902774500,24.5557744140625,9.617950439453125,2.172683000564575,-0.3032902777194977
1775033709954255000,24.607255126953124,9.67238712310791,2.255833625793457,-0.25423741340637207
1775033710005735700,24.658735595703124,9.537193298339844,2.193620204925537,-0.2602194547653198
1775033710057216300,24.71021630859375,9.66819953918457,2.2995026111602783,-0.1746760457754135
1775033710108696600,24.761696533203125,9.576674461364746,2.1337995529174805,-0.17347964644432068
1775033710160177200,24.81317724609375,9.714262008666992,2.1672990322113037,-0.10707881301641464
1775033710211657700,24.86465771484375,9.57487964630127,2.15653133392334,-0.15254244208335876
1775033710263138300,24.91613818359375,9.655637741088867,2.222334146499634,-0.12203395366668701
1775033710314619000,24.967618896484375,9.617352485656738,2.301297187805176,-0.08374879509210587
1775033710366099500,25.019099365234375,9.592825889587402,2.3156540393829346,-0.10648060590028763
1775033710417580000,25.070580078125,9.580862045288086,2.2498514652252197,-0.018544375896453857
1775033710469060400,25.122060302734376,9.632905960083008,2.26959228515625,-0.03768695518374443
1775033710520541000,25.173541015625,9.622138023376465,2.193620204925537,-0.05802594870328903
1775033710572021500,25.225021484375,9.626325607299805,2.0967109203338623,-0.07058826833963394
1775033710623502000,25.276502197265625,9.68076229095459,2.2163519859313965,-0.008973085321485996
1775033710674982700,25.327982666015625,9.506684303283691,2.5537400245666504,-0.17527425289154053
1775033710726463200,25.379463134765626,9.577272415161133,2.447857618331909,-0.15912270545959473
1775033710777943800,25.43094384765625,9.607781410217285,2.2600209712982178,-0.4983053207397461
1775033710829424000,25.482424072265626,9.55633544921875,2.352742910385132,-0.4408775866031647
1775033710880904700,25.53390478515625,9.617352485656738,2.365305185317993,-0.2919243574142456
1775033710932385300,25.58538525390625,9.617352485656738,2.4424736499786377,-0.2392822653055191
1775033710983865900,25.636865966796876,9.466604232788086,2.565704107284546,-0.5246263742446899
1775033711035346400,25.688346435546876,9.56052303314209,2.5800609588623047,-0.4061816334724426
1775033711086827000,25.739826904296876,9.5862455368042,2.4472594261169434,-0.3188436031341553
1775033711138307600,25.7913076171875,9.519247055053711,2.4149563312530518,-0.1902294009923935
1775033711189788000,25.842787841796873,9.5802640914917,2.444866418838501,-0.10887342691421509
1775033711241268500,25.8942685546875,9.574281692504883,2.3395824432373047,-0.18125630915164948
1775033711292749000,25.9457490234375,9.641280174255371,2.3706889152526855,-0.1537388563156128
1775033711344229600,25.997229736328126,9.506086349487305,2.352742910385132,0.09391828626394272
1775033711395710200,26.048710205078127,9.603593826293945,2.3946173191070557,0.2027917206287384
1775033711447190500,26.1001904296875,9.619745254516602,2.348555326461792,0.20817556977272034
1775033711498671000,26.151671142578124,9.610174179077148,2.3132612705230713,0.2877369225025177
1775033711550151700,26.203151611328124,9.519845008850098,2.5046870708465576,0.07357929646968842
1775033711601632300,26.25463232421875,9.56889820098877,2.451446771621704,-0.1860419660806656
1775033711653112800,26.30611279296875,9.586843490600586,2.4149563312530518,-0.0029910283628851175
1775033711704593400,26.357593505859374,9.534201622009277,2.4017956256866455,-0.20518454909324646
1775033711756074000,26.409073974609374,9.595218658447266,2.430509567260742,-0.11904292553663254
1775033711807554600,26.460554443359374,9.607781410217285,2.3228325843811035,-0.08315058797597885
1775033711859035000,26.512034912109375,9.520442962646484,2.448455810546875,-0.06520441919565201
1775033711910515500,26.563515380859375,9.54915714263916,2.4460630416870117,0.010169495828449726
1775033711961996000,26.61499609375,9.55214786529541,2.39401912689209,0.1010967567563057
1775033712013476600,26.6664765625,9.591031074523926,2.534597396850586,0.11066804826259613
1775033712064957000,26.71795703125,9.539586067199707,2.5052852630615234,0.04007977992296219
1775033712116437500,26.7694375,9.624530792236328,2.383849620819092,0.05503492057323456
1775033712167918000,26.82091796875,9.595218658447266,2.3772692680358887,0.05024927482008934
1775033712219398700,26.872398681640625,9.591629981994629,2.393420934677124,-0.01196411345154047
1775033712270879200,26.923879150390626,9.602995872497559,2.4598217010498047,-0.0849452018737793
1775033712322359800,26.97535986328125,9.565308570861816,2.430509567260742,-0.19381862878799438
1775033712373840400,27.02684033203125,9.537193298339844,2.472383975982666,-0.16031911969184875
1775033712425321000,27.078321044921875,9.480961799621582,2.575275421142578,-0.21655045449733734
1775033712476801300,27.12980126953125,9.561718940734863,2.531008243560791,-0.19202402234077454
1775033712528281900,27.18128173828125,9.537193298339844,2.5178475379943848,-0.0975075215101242
1775033712579762400,27.232762451171876,9.580862045288086,2.441277265548706,-0.12382857501506805
1775033712631243000,27.284242919921876,9.553942680358887,2.4711875915527344,-0.1944168359041214
1775033712682723600,27.3357236328125,9.57607650756836,2.4849462509155273,-0.08255238085985184
1775033712734204000,27.387203857421873,9.518050193786621,2.4059832096099854,-0.1333998590707779
1775033712785684500,27.4386845703125,9.58205795288086,2.4604198932647705,-0.15613168478012085
1775033712837165000,27.4901650390625,9.633503913879395,2.469393014907837,-0.13998012244701385
1775033712888645600,27.541645751953126,9.635298728942871,2.18045973777771,-0.06400800496339798
1775033712940126200,27.593126220703127,9.558130264282227,2.252244234085083,-0.08315058797597885
1775033712991606800,27.644606689453123,9.576674461364746,2.499901533126831,-0.005982056725770235
1775033713043087400,27.69608740234375,9.466604232788086,2.571686029434204,-0.11665010452270508
1775033713094567700,27.747567626953124,9.516255378723145,2.5938198566436768,-0.22193430364131927
1775033713146048300,27.79904833984375,9.57787036895752,2.4508485794067383,-0.10169496387243271
1775033713197528800,27.85052880859375,9.586843490600586,2.3994028568267822,-0.20518454909324646
1775033713249009400,27.902009521484374,9.637093544006348,2.272583246231079,-0.2626122832298279
1775033713300490000,27.953489990234374,9.575477600097656,2.365903377532959,-0.24526432156562805
1775033713351970600,28.004970458984374,9.573084831237793,2.368894338607788,-0.243469700217247
1775033713403451000,28.056450927734375,9.622138023376465,2.338385820388794,-0.3074777126312256
1775033713454931500,28.107931396484375,9.57787036895752,2.3910279273986816,-0.28654050827026367
1775033713506412000,28.159412109375,9.550353050231934,2.4053850173950195,-0.12622138857841492
1775033713557892600,28.210892578125,9.598209381103516,2.3611178398132324,-0.09152546525001526
1775033713609373200,28.262373291015624,9.581459999084473,2.3336002826690674,-0.1657029688358307
1775033713660853800,28.313853759765625,9.597611427307129,2.3575284481048584,-0.23210379481315613
1775033713712334000,28.365333984375,9.604191780090332,2.3192434310913086,-0.26081767678260803
1775033713763814700,28.416814697265625,9.588040351867676,2.3599212169647217,-0.29850462079048157
1775033713815295200,28.468295166015626,9.57188892364502,2.3641088008880615,-0.33798620104789734
1775033713866775800,28.51977587890625,9.561718940734863,2.3515465259552,-0.4504488706588745
1775033713918256400,28.57125634765625,9.585049629211426,2.365305185317993,-0.4612165689468384
1775033713969737000,28.622737060546875,9.565906524658203,2.3515465259552,-0.4737788736820221
1775033714021217500,28.674217529296875,9.56351375579834,2.3641088008880615,-0.4977070987224579
1775033714072697900,28.72569775390625,9.509675025939941,2.2917258739471436,-0.5527420043945312
1775033714124178400,28.777178466796876,9.671191215515137,2.287538528442383,-0.5760720372200012
1775033714175659000,28.828658935546876,9.600603103637695,2.2366909980773926,-0.6442674994468689
1775033714227139600,28.8801396484375,9.66520881652832,2.228914260864258,-0.6801598072052002
1775033714278620200,28.9316201171875,9.601799011230469,2.286342144012451,-0.5832505226135254
1775033714330100700,28.983100830078126,9.616155624389648,2.2498514652252197,-0.6095715761184692
1775033714381581000,29.0345810546875,9.588040351867676,2.311466693878174,-0.5736792087554932
1775033714433061600,29.0860615234375,9.57069206237793,2.2893331050872803,-0.5150550603866577
1775033714484542200,29.137542236328127,9.595218658447266,2.303689956665039,-0.5060819983482361
1775033714536022800,29.189022705078123,9.57487964630127,2.2989044189453125,-0.5437689423561096
1775033714587503400,29.24050341796875,9.591031074523926,2.3186452388763428,-0.5617151260375977
1775033714638984000,29.29198388671875,9.585049629211426,2.3060827255249023,-0.5108676552772522
1775033714690464300,29.34346435546875,9.58205795288086,2.3120648860931396,-0.49292147159576416
1775033714741944800,29.39494482421875,9.591629981994629,2.325225353240967,-0.503689169883728
1775033714793425400,29.44642529296875,9.587442398071289,2.301297187805176,-0.48514479398727417
1775033714844906000,29.497906005859374,9.588040351867676,2.3120648860931396,-0.46480581164360046
1775033714896386600,29.549386474609374,9.5862455368042,2.3084757328033447,-0.46719861030578613
1775033714947867000,29.600866943359375,9.591629981994629,2.2917258739471436,-0.5132604837417603
1775033714999347500,29.652347412109375,9.5862455368042,2.337787628173828,-0.5174478888511658
1775033715050828000,29.703828125,9.588638305664062,2.3126630783081055,-0.4695914387702942
1775033715102308600,29.75530859375,9.578469276428223,2.3162522315979004,-0.4570291340351105
1775033715153789200,29.8067890625,9.574281692504883,2.2749760150909424,-0.47557350993156433
1775033715205269800,29.858269775390625,9.632905960083008,2.3611178398132324,-0.5174478888511658
1775033715256750300,29.909750244140625,9.577272415161133,2.2857437133789062,-0.45224347710609436
1775033715308231000,29.96123095703125,9.578469276428223,2.3395824432373047,-0.4217349886894226
1775033715359711200,30.012711181640626,9.625727653503418,2.263011932373047,-0.3690928816795349
1775033715411191800,30.06419189453125,9.592825889587402,2.231905221939087,-0.46480581164360046
1775033715462672400,30.11567236328125,9.623932838439941,2.2989044189453125,-0.45643091201782227
1775033715514153000,30.167153076171875,9.57487964630127,2.279761791229248,-0.527019202709198
1775033715565633500,30.218633544921875,9.606584548950195,2.325225353240967,-0.5940182209014893
1775033715617113900,30.27011376953125,9.554540634155273,2.3258235454559326,-0.6167500615119934
1775033715668594400,30.321594482421876,9.57188892364502,2.334198474884033,-0.6317051649093628
1775033715720075000,30.373074951171876,9.583852767944336,2.3670997619628906,-0.6741777658462524
1775033715771555600,30.4245556640625,9.548559188842773,2.3336002826690674,-0.6239284873008728
1775033715823036200,30.4760361328125,9.57188892364502,2.379063844680786,-0.6227321028709412
1775033715874516700,30.527516845703126,9.571290969848633,2.338385820388794,-0.5868397355079651
1775033715925997000,30.5789970703125,9.5862455368042,2.3515465259552,-0.5700899958610535
1775033715977477600,30.6304775390625,9.57069206237793,2.321636199951172,-0.5210371017456055
1775033716028958200,30.681958251953127,9.612566947937012,2.2791635990142822,-0.5066801905632019
1775033716080438800,30.733438720703123,9.588638305664062,2.303689956665039,-0.5120640397071838
1775033716131919400,30.78491943359375,9.591031074523926,2.307279348373413,-0.4815555512905121
1775033716183400000,30.83639990234375,9.597611427307129,2.304288148880005,-0.43609192967414856
1775033716234880300,30.88788037109375,9.608977317810059,2.290529489517212,-0.43190449476242065
1775033716286360800,30.93936083984375,9.604789733886719,2.2755744457244873,-0.4336991012096405
1775033716337841400,30.99084130859375,9.586843490600586,2.318047046661377,-0.38225340843200684
1775033716389322000,31.042322021484374,9.58205795288086,2.2989044189453125,-0.4468596279621124
1775033716440802300,31.09380224609375,9.604191780090332,2.272583246231079,-0.4911268353462219
1775033716492283000,31.145282958984374,9.601799011230469,2.2821545600891113,-0.4492524564266205
1775033716543763500,31.196763427734375,9.58205795288086,2.2809581756591797,-0.4666004180908203
1775033716595244000,31.248244140625,9.620942115783691,2.2779672145843506,-0.48873403668403625
1775033716646724600,31.299724609375,9.583852767944336,2.2600209712982178,-0.5437689423561096
1775033716698205000,31.351204833984376,9.594022750854492,2.3060827255249023,-0.529412031173706
1775033716749685500,31.402685546875,9.578469276428223,2.318047046661377,-0.5539384484291077
1775033716801166000,31.454166015625,9.568299293518066,2.316850423812866,-0.5862415432929993
1775033716852646700,31.505646728515625,9.598808288574219,2.325225353240967,-0.6604190468788147
1775033716904127000,31.557126953125,9.5862455368042,2.2600209712982178,-0.6951149702072144
1775033716955607600,31.608607666015626,9.591629981994629,2.324028968811035,-0.6783652305603027
1775033717007088000,31.660088134765626,9.558728218078613,2.3359930515289307,-0.6299105882644653
1775033717058568700,31.711568603515627,9.587442398071289,2.3461625576019287,-0.605384111404419
1775033717110049300,31.76304931640625,9.574281692504883,2.3120648860931396,-0.5880361795425415
1775033717161529600,31.814529541015624,9.612566947937012,2.344966173171997,-0.5377869009971619
1775033717213010200,31.86601025390625,9.561120986938477,2.3030917644500732,-0.529412031173706
1775033717264490800,31.91749072265625,9.607781410217285,2.293520450592041,-0.5186443328857422
1775033717315971300,31.968971435546877,9.574281692504883,2.286940336227417,-0.5174478888511658
1775033717367451600,32.02045166015625,9.614959716796875,2.3120648860931396,-0.5419743061065674
1775033717418932200,32.07193212890625,9.581459999084473,2.2791635990142822,-0.5563312768936157
1775033717470412800,32.12341284179688,9.614959716796875,2.328216314315796,-0.5276173949241638
1775033717521893400,32.17489331054688,9.573683738708496,2.331207513809204,-0.4911268353462219
1775033717573373700,32.22637377929688,9.598209381103516,2.266601324081421,-0.4468596279621124
1775033717624854300,32.27785424804687,9.613762855529785,2.279761791229248,-0.41216370463371277
1775033717676334800,32.3293349609375,9.602995872497559,2.2713868618011475,-0.39481574296951294
1775033717727815400,32.3808154296875,9.601799011230469,2.255833625793457,-0.4731806814670563
1775033717779295700,32.43229565429687,9.613164901733398,2.2845473289489746,-0.45284169912338257
1775033717830776300,32.4837763671875,9.581459999084473,2.287538528442383,-0.4366901218891144
1775033717882257000,32.5352568359375,9.595816612243652,2.2809581756591797,-0.41156548261642456
1775033717933737500,32.586737548828125,9.606584548950195,2.283350944519043,-0.46002015471458435
1775033717985217800,32.6382177734375,9.592227935791016,2.2671995162963867,-0.46360939741134644
1775033718036698400,32.689698486328126,9.602396965026855,2.292922258377075,-0.4504488706588745
1775033718088179000,32.74117895507813,9.591031074523926,2.2953150272369385,-0.46839502453804016
1775033718139659500,32.79265942382813,9.592227935791016,2.273181438446045,-0.5210371017456055
1775033718191139800,32.84413989257813,9.593423843383789,2.279761791229248,-0.5210371017456055
1775033718242620400,32.89562036132813,9.602396965026855,2.300100803375244,-0.5341976284980774
1775033718294101000,32.94710107421875,9.5802640914917,2.292922258377075,-0.5665007829666138
1775033718345581300,32.99858129882813,9.601799011230469,2.294118642807007,-0.5587241053581238
1775033718397062000,33.05006176757813,9.586843490600586,2.3324038982391357,-0.5234299302101135
1775033718448542500,33.10154248046875,9.577272415161133,2.296511650085449,-0.4863412082195282
1775033718500023000,33.15302294921875,9.608977317810059,2.296511650085449,-0.4983053207397461
1775033718551503400,33.20450341796875,9.591031074523926,2.2713868618011475,-0.47976094484329224
1775033718602984000,33.25598388671875,9.605986595153809,2.2911276817321777,-0.47198426723480225
1775033718654464500,33.307464599609375,9.598209381103516,2.3048863410949707,-0.4618147611618042
1775033718705944800,33.35894482421875,9.591031074523926,2.301297187805176,-0.4731806814670563
1775033718757425400,33.41042529296875,9.597013473510742,2.2881367206573486,-0.4660021960735321
1775033718808906000,33.461906005859376,9.593423843383789,2.287538528442383,-0.45523449778556824
1775033718860386300,33.51338623046875,9.596415519714355,2.297708034515381,-0.46002015471458435
1775033718911867000,33.56486694335938,9.595816612243652,2.2845473289489746,-0.4749752879142761
1775033718963347500,33.61634741210938,9.597013473510742,2.297109842300415,-0.47258245944976807
1775033719014828000,33.667828125,9.592227935791016,2.310868501663208,-0.48514479398727417
1775033719066308400,33.71930834960938,9.596415519714355,2.2959132194519043,-0.46360939741134644
1775033719117789000,33.77078881835938,9.5862455368042,2.2887349128723145,-0.4731806814670563
1775033719169269500,33.82226953125,9.601201057434082,2.2743778228759766,-0.48574298620224
1775033719220749800,33.87374975585937,9.597013473510742,2.307279348373413,-0.5108676552772522
1775033719272230400,33.92523046875,9.57188892364502,2.318047046661377,-0.4941178858280182
1775033719323711000,33.9767109375,9.599406242370605,2.307279348373413,-0.4893322288990021
1775033719375191600,34.028191650390625,9.591031074523926,2.297708034515381,-0.5084748268127441
1775033719426671900,34.079671875,9.595218658447266,2.290529489517212,-0.4905286431312561
1775033719478152400,34.13115234375,9.600004196166992,2.3156540393829346,-0.4660021960735321
1775033719529633000,34.182633056640626,9.589237213134766,2.314457654953003,-0.46779683232307434
1775033719581113300,34.23411328125,9.607182502746582,2.283949136734009,-0.49710890650749207
1775033719632594000,34.285593994140626,9.591031074523926,2.3192434310913086,-0.47557350993156433
1775033719684074500,34.33707446289063,9.592227935791016,2.292922258377075,-0.4546363055706024
1775033719735554800,34.38855493164063,9.593423843383789,2.2953150272369385,-0.47916272282600403
1775033719787035400,34.44003540039063,9.587442398071289,2.3024935722351074,-0.45942193269729614
1775033719838516000,34.49151586914063,9.58325481414795,2.3204398155212402,-0.47916272282600403
1775033719889996500,34.54299658203125,9.587442398071289,2.3234307765960693,-0.4833501875400543
1775033719941476900,34.59447680664063,9.589835166931152,2.32761812210083,-0.49710890650749207
1775033719992957400,34.64595751953125,9.589835166931152,2.3054845333099365,-0.48035913705825806
1775033720044438000,34.69743798828125,9.608977317810059,2.3132612705230713,-0.5066801905632019
1775033720095918300,34.74891845703125,9.568299293518066,2.324028968811035,-0.4911268353462219
1775033720147399000,34.80039892578125,9.575477600097656,2.3258235454559326,-0.44386860728263855
1775033720198879500,34.85187939453125,9.573084831237793,2.3048863410949707,-0.4420739710330963
1775033720250359800,34.90335986328125,9.602995872497559,2.3270199298858643,-0.4570291340351105
1775033720301840400,34.95484033203125,9.595218658447266,2.286342144012451,-0.48873403668403625
1775033720353321000,35.006321044921876,9.605388641357422,2.325225353240967,-0.4827519655227661
1775033720404801500,35.057801513671876,9.57607650756836,2.301297187805176,-0.48873403668403625
1775033720456281900,35.10928173828125,9.599406242370605,2.324028968811035,-0.5030909776687622
1775033720507762400,35.16076245117188,9.582656860351562,2.303689956665039,-0.5048855543136597
1775033720559243000,35.21224291992188,9.601201057434082,2.3324038982391357,-0.5138586759567261
1775033720610723300,35.26372338867188,9.57607650756836,2.314457654953003,-0.4905286431312561
1775033720662204000,35.31520385742188,9.594620704650879,2.3090739250183105,-0.4863412082195282
1775033720713684500,35.3666845703125,9.578469276428223,2.328814744949341,-0.4899304509162903
1775033720765164800,35.41816479492188,9.584450721740723,2.3096721172332764,-0.5132604837417603
1775033720816645400,35.46964526367187,9.604191780090332,2.314457654953003,-0.5018945336341858
1775033720868126000,35.5211259765625,9.569496154785156,2.328814744949341,-0.48873403668403625
1775033720919606500,35.5726064453125,9.591031074523926,2.316850423812866,-0.46480581164360046
1775033720971086800,35.6240869140625,9.595816612243652,2.2893331050872803,-0.4905286431312561
1775033721022567400,35.6755673828125,9.588638305664062,2.2953150272369385,-0.45942193269729614
1775033721074048000,35.727048095703125,9.600603103637695,2.2887349128723145,-0.4995017349720001
1775033721125528600,35.778528564453126,9.595816612243652,2.318047046661377,-0.4911268353462219
1775033721177009000,35.8300087890625,9.589835166931152,2.328216314315796,-0.4612165689468384
1775033721228489500,35.881489501953126,9.592227935791016,2.294118642807007,-0.4504488706588745
1775033721279969800,35.9329697265625,9.620942115783691,2.2570300102233887,-0.4211367964744568
1775033721331450400,35.98445043945313,9.589835166931152,2.3096721172332764,-0.43130627274513245
1775033721382931000,36.03593090820313,9.595816612243652,2.283350944519043,-0.42711883783340454
1775033721434411500,36.08741162109375,9.601201057434082,2.2719850540161133,-0.5024927258491516
1775033721485891800,36.13889184570313,9.589835166931152,2.276770830154419,-0.5712863802909851
1775033721537372400,36.19037231445313,9.589835166931152,2.303689956665039,-0.5539384484291077
1775033721588853000,36.24185302734375,9.57906723022461,2.313859462738037,-0.5665007829666138
1775033721640333600,36.29333349609375,9.597611427307129,2.3120648860931396,-0.6023930907249451
1775033721691814000,36.34481396484375,9.559925079345703,2.3096721172332764,-0.6287141442298889
1775033721743294500,36.39629443359375,9.589835166931152,2.325225353240967,-0.5748756527900696
1775033721794775000,36.447775146484375,9.58205795288086,2.324028968811035,-0.5006981492042542
1775033721846255400,36.49925537109375,9.58325481414795,2.3192434310913086,-0.5401797294616699
1775033721897736000,36.55073583984375,9.589835166931152,2.3150558471679688,-0.5252245664596558
1775033721949216500,36.602216552734376,9.591629981994629,2.303689956665039,-0.46002015471458435
1775033722000697000,36.653697021484376,9.600603103637695,2.334198474884033,-0.4217349886894226
1775033722052177400,36.70517749023438,9.581459999084473,2.300100803375244,-0.43130627274513245
1775033722103658000,36.75665795898438,9.614959716796875,2.3222343921661377,-0.46002015471458435
1775033722155138600,36.808138671875,9.581459999084473,2.310270309448242,-0.45284169912338257
1775033722206619100,36.859619140625,9.568299293518066,2.3120648860931396,-0.4534398913383484
1775033722258099500,36.91109936523438,9.597013473510742,2.3359930515289307,-0.4815555512905121
1775033722309580000,36.962580078125,9.582656860351562,2.2911276817321777,-0.5204389095306396
1775033722361060600,37.014060546875,9.597013473510742,2.2809581756591797,-0.5467599630355835
1775033722412541000,37.065541015625,9.589835166931152,2.3503501415252686,-0.5377869009971619
1775033722464021500,37.117021484375,9.559326171875,2.3461625576019287,-0.5383850932121277
1775033722515502000,37.168502197265624,9.588040351867676,2.3306093215942383,-0.544965386390686
1775033722566982400,37.219982421875,9.589835166931152,2.310868501663208,-0.5198407173156738
1775033722618463000,37.271462890625,9.582656860351562,2.3300111293792725,-0.5198407173156738
1775033722669943600,37.322943603515625,9.608977317810059,2.283350944519043,-0.5030909776687622
1775033722721424100,37.374424072265626,9.584450721740723,2.3084757328033447,-0.49351966381073
1775033722772904400,37.425904541015626,9.598808288574219,2.3192434310913086,-0.47796630859375
1775033722824385000,37.47738500976563,9.57188892364502,2.328814744949341,-0.48394837975502014
1775033722875865600,37.52886547851563,9.589237213134766,2.321636199951172,-0.5335994362831116
1775033722927346200,37.58034619140625,9.581459999084473,2.3150558471679688,-0.5222335457801819
1775033722978826500,37.63182641601563,9.593423843383789,2.32761812210083,-0.5437689423561096
1775033723030307000,37.68330712890625,9.577272415161133,2.3431715965270996,-0.5365904569625854
1775033723081787600,37.73478759765625,9.571290969848633,2.3503501415252686,-0.5246263742446899
1775033723133268000,37.78626806640625,9.592825889587402,2.318047046661377,-0.5030909776687622
1775033723184748500,37.83774853515625,9.5862455368042,2.300100803375244,-0.4893322288990021
1775033723236229000,37.88922900390625,9.607781410217285,2.324627161026001,-0.4205385744571686
1775033723287709400,37.94070947265625,9.592227935791016,2.301297187805176,-0.37926238775253296
1775033723339190000,37.99218994140625,9.579665184020996,2.328814744949341,-0.4863412082195282
1775033723390670600,38.043670654296875,9.598808288574219,2.3054845333099365,-0.5210371017456055
1775033723442151200,38.095151123046875,9.588638305664062,2.3204398155212402,-0.49591249227523804
1775033723493631500,38.146631591796876,9.592825889587402,2.3264217376708984,-0.48035913705825806
1775033723545112000,38.198112060546876,9.549755096435547,2.334796667098999,-0.5300102233886719
1775033723596592600,38.249592529296876,9.608977317810059,2.3264217376708984,-0.5772684812545776
1775033723648073000,38.30107299804688,9.573683738708496,2.3461625576019287,-0.527019202709198
1775033723699553500,38.35255346679688,9.57787036895752,2.3503501415252686,-0.45942193269729614
1775033723751034000,38.4040341796875,9.575477600097656,2.3575284481048584,-0.4749752879142761
1775033723802514400,38.45551440429688,9.593423843383789,2.3096721172332764,-0.529412031173706
1775033723853995000,38.5069951171875,9.600603103637695,2.3306093215942383,-0.47617170214653015
1775033723905475600,38.5584755859375,9.576674461364746,2.3365912437438965,-0.38344982266426086
1775033723956956000,38.60995581054687,9.608977317810059,2.3024935722351074,-0.49591249227523804
1775033724008436500,38.6614365234375,9.553942680358887,2.345564365386963,-0.6514459848403931
1775033724059917000,38.7129169921875,9.58325481414795,2.3814568519592285,-0.6765705943107605
1775033724111397400,38.7643974609375,9.549755096435547,2.3605196475982666,-0.722034215927124
1775033724162878000,38.8158779296875,9.542576789855957,2.383251428604126,-0.7513462901115417
1775033724214358500,38.867358642578125,9.573084831237793,2.4149563312530518,-0.776470959186554
1775033724265839000,38.918839111328126,9.512067794799805,2.4185454845428467,-0.7734799385070801
1775033724317319400,38.9703193359375,9.535996437072754,2.461616277694702,-0.6652047038078308
1775033724368800000,39.021800048828126,9.575477600097656,2.3874387741088867,-0.5988038778305054
1775033724420280300,39.0732802734375,9.56889820098877,2.325225353240967,-0.7106683254241943
1775033724471761000,39.12476098632813,9.602396965026855,2.321636199951172,-0.5676971673965454
1775033724523241500,39.17624145507813,9.57069206237793,2.3682961463928223,-0.4127618968486786
1775033724574721800,39.2277216796875,9.634700775146484,2.3192434310913086,-0.2386840581893921
1775033724626202400,39.27920239257813,9.572486877441406,2.2755744457244873,-0.23389841616153717
1775033724677683000,39.33068286132813,9.632905960083008,2.286342144012451,-0.2027917206287384
1775033724729163500,39.38216357421875,9.659226417541504,2.18045973777771,-0.16809579730033875
1775033724780643800,39.43364379882812,9.607781410217285,2.2570300102233887,-0.24945175647735596
1775033724832124400,39.48512451171875,9.625727653503418,2.263011932373047,-0.2991028428077698
1775033724883604700,39.53660473632812,9.598808288574219,2.2785654067993164,-0.21595224738121033
1775033724935085300,39.58808520507812,9.582656860351562,2.325225353240967,-0.25423741340637207
1775033724986566000,39.63956591796875,9.601799011230469,2.2743778228759766,-0.5222335457801819
1775033725038046200,39.691046142578124,9.594620704650879,2.286940336227417,-0.6675975322723389
1775033725089526800,39.74252685546875,9.55513858795166,2.3611178398132324,-0.6897311210632324
1775033725141007400,39.79400732421875,9.559326171875,2.41375994682312,-0.7088736891746521
1775033725192487700,39.84548779296875,9.497711181640625,2.4358935356140137,-0.8913264274597168
1775033725243968300,39.89696826171875,9.56052303314209,2.472383975982666,-0.8991031050682068
1775033725295448800,39.94844873046875,9.524630546569824,2.424527645111084,-0.7357929348945618
1775033725346929200,39.99992919921875,9.58205795288086,2.3910279273986816,-0.6197410821914673
1775033725398409700,40.05140966796875,9.527621269226074,2.379662036895752,-0.5563312768936157
1775033725449890000,40.10289013671875,9.600603103637695,2.4089741706848145,-0.529412031173706
1775033725501370600,40.15437060546875,9.569496154785156,2.3670997619628906,-0.5162515044212341
1775033725552851200,40.20585131835937,9.578469276428223,2.383849620819092,-0.49351966381073
1775033725604331500,40.25733154296875,9.5802640914917,2.379662036895752,-0.4450650215148926
1775033725655812000,40.30881201171875,9.5802640914917,2.358126640319824,-0.46719861030578613
1775033725707292700,40.36029272460937,9.585647583007812,2.3778674602508545,-0.48035913705825806
1775033725758773000,40.41177294921875,9.567103385925293,2.3575284481048584,-0.5030909776687622
1775033725810253600,40.46325366210937,9.598808288574219,2.383251428604126,-0.50129634141922
1775033725861734100,40.514734130859374,9.56770133972168,2.375474691390991,-0.5389832854270935
1775033725913214500,40.56621435546875,9.568299293518066,2.3952155113220215,-0.5018945336341858
1775033725964695000,40.617695068359374,9.568299293518066,2.38983154296875,-0.4977070987224579
1775033726016175400,40.66917529296875,9.57188892364502,2.3850460052490234,-0.5330012440681458
1775033726067656000,40.720656005859375,9.56770133972168,2.3844478130340576,-0.5545366406440735
1775033726119136500,40.772136474609376,9.553942680358887,2.3988046646118164,-0.529412031173706
1775033726170616800,40.823616943359376,9.585049629211426,2.400001049041748,-0.5665007829666138
1775033726222097400,40.875097412109376,9.56889820098877,2.397010087966919,-0.5856433510780334
1775033726273577700,40.92657763671875,9.598209381103516,2.3874387741088867,-0.5784648656845093
1775033726325058300,40.97805834960938,9.473783493041992,2.444866418838501,-0.5018945336341858
1775033726376539000,41.02953881835938,9.564111709594727,2.434697151184082,-0.47796630859375
