time,seconds_elapsed,z,y,x
1775033685435863600,0.088863525390625,-0.0032070400193333626,-0.008704823441803455,-0.011453714221715927
1775033685487344400,0.140344482421875,0,-0.012217295356094837,0.013744457624852657
1775033685538825000,0.191824951171875,-0.014660755172371864,-0.007177661173045635,-0.000610864779446274
1775033685590305500,0.243305419921875,-0.006872228812426329,-0.005039634648710489,0.0027488914784044027
1775033685641786000,0.2947861328125,-0.006414080038666725,-0.016035201027989388,-0.005345067009329796
1775033685693266700,0.3462666015625,-0.02626718580722809,0.011759147047996521,-0.010995565913617611
1775033685744747500,0.39774755859375,-0.0386371985077858,0.0025961752980947495,0.006108647678047419
1775033685796228000,0.44922802734375,-0.0027488914784044027,-0.06017018109560013,-0.0009162971982732415
1775033685847708700,0.500708740234375,0.02458730712532997,0.013744457624852657,0.0015271619195118546
1775033685899189200,0.552189208984375,0.01588248461484909,0.04825831577181816,-0.004276053514331579
1775033685950669800,0.603669921875,-0.004428769461810589,0.010842849500477314,-0.009162971749901772
1775033686002150700,0.655150634765625,-0.029626941308379173,0.033597562462091446,-0.01359174121171236
1775033686053631200,0.70663134765625,-0.04459312930703163,0.08460476994514465,0.014966187067329884
1775033686105111800,0.75811181640625,-0.02916879393160343,-0.000610864779446274,0.017104214057326317
1775033686156592400,0.80959228515625,0.013439024798572063,-0.003665188793092966,0.000610864779446274
1775033686208073200,0.8610732421875,0.011453714221715927,0.03390299528837204,0.0030543238390237093
1775033686259553800,0.9125537109375,-0.004581485874950886,-0.025045456364750862,0.001221729558892548
1775033686311034400,0.964034423828125,0.008399390615522861,-0.055741410702466965,0.0027488914784044027
1775033686362515000,1.015514892578125,0.027030766010284424,-0.0032070400193333626,0.004886918235570192
1775033686413995800,1.066995849609375,0.014813470654189587,0.00946840364485979,0.011148282326757908
1775033686465476400,1.118476318359375,-0.003512472379952669,-0.01954767294228077,0.013286309316754341
1775033686516957000,1.16995703125,-0.01908952370285988,-0.029016077518463135,0.009162971749901772
1775033686568437500,1.2214375,0.003970621153712273,-0.032070402055978775,0.017256930470466614
1775033686619918000,1.27291796875,0.011759147047996521,-0.05925388261675835,0.016798781231045723
1775033686671399000,1.32439892578125,0.023518294095993042,-0.1003345400094986,0.024740023538470268
1775033686722879500,1.37587939453125,0.02412915788590908,-0.06322450190782547,0.010079269297420979
1775033686774360000,1.427360107421875,0.002290742937475443,-0.0009162971982732415,-0.006719512399286032
1775033686825840600,1.478840576171875,-0.009162971749901772,-0.04046979174017906,0.007024944759905338
1775033686877321200,1.5303212890625,-0.0013744457392022014,-0.08170316368341446,0.016187917441129684
1775033686928801800,1.5818017578125,0.030085090547800064,-0.06352993845939636,0.005192350596189499
1775033686980282600,1.63328271484375,0.03191768378019333,-0.04459312930703163,-0.007635809946805239
1775033687031763200,1.68476318359375,0.014202605932950974,-0.013439024798572063,-0.006414080038666725
1775033687083243800,1.736243896484375,0.01435532234609127,-0.020769402384757996,0.003970621153712273
1775033687134724400,1.787724365234375,-0.008552107028663158,-0.012675444595515728,0.000610864779446274
1775033687186205200,1.839205078125,0.017867794260382652,-0.034208428114652634,0.008093958720564842
1775033687237685800,1.890685791015625,0.07864884287118912,-0.05971203371882439,0.003359756199643016
1775033687289166300,1.942166259765625,0.11988221108913422,-0.09162971377372742,0.002290742937475443
1775033687340647000,1.99364697265625,0.13622283935546875,-0.054672397673130035,0.0054977829568088055
1775033687392127500,2.04512744140625,0.17455461621284485,-0.06780599057674408,0.006414080038666725
1775033687443608300,2.0966083984375,0.12904518842697144,-0.015271619893610477,-0.009315688163042068
1775033687495089000,2.1480888671875,0.008857538923621178,0.007635809946805239,-0.006719512399286032
1775033687546569500,2.199569580078125,-0.08261945843696594,0.10125083476305008,-0.000305432389723137
1775033687598050000,2.251050048828125,-0.15317434072494507,0.1536324918270111,0
1775033687649530600,2.302530517578125,-0.13133592903614044,0.12492185086011887,0.021380268037319183
1775033687701011200,2.35401123046875,-0.03695731982588768,-0.04153880476951599,0.02260199747979641
1775033687752492000,2.405491943359375,-0.04260781779885292,-0.0435241162776947,0.023518294095993042
1775033687803972600,2.45697265625,-0.058795735239982605,-0.00946840364485979,0.03176496922969818
1775033687855453200,2.508453125,-0.08200860023498535,-0.027947064489126205,0.039858926087617874
1775033687906933800,2.559933837890625,-0.14019346237182617,-0.027488915249705315,0.04993819445371628
1775033687958414300,2.611414306640625,-0.1727220118045807,0.010537417605519295,0.05635227635502815
1775033688009895000,2.66289501953125,-0.13500112295150757,-0.008246674202382565,0.06597339361906052
1775033688061375500,2.71437548828125,-0.13423752784729004,-0.037262752652168274,0.06536252796649933
1775033688112856300,2.765856201171875,-0.1153007298707962,-0.024740023538470268,0.04520399495959282
1775033688164337000,2.8173369140625,-0.07757982611656189,0.03909534588456154,0.021991131827235222
1775033688215817500,2.8688173828125,-0.032070402055978775,0.02932151034474373,0.013439024798572063
1775033688267298000,2.920298095703125,0.02367101050913334,0.043371398001909256,0.008552107028663158
1775033688318778600,2.971778564453125,0.06368265300989151,0.004123337101191282,-0.021991131827235222
1775033688370259200,3.02325927734375,0.10125083476305008,-0.0009162971982732415,-0.03848448023200035
1775033688421740000,3.074739990234375,0.10461059212684631,0.0027488914784044027,-0.024892739951610565
1775033688473220600,3.126220703125,0.08567378669977188,-0.0308486707508564,-0.025350889191031456
1775033688524701200,3.177701171875,0.08155044913291931,-0.04474584385752678,-0.03756818547844887
1775033688576181800,3.229181640625,-0.07406735420227051,-0.1357647031545639,-0.000305432389723137
1775033688627662300,3.280662353515625,-0.17715078592300415,-0.023212861269712448,0.027336198836565018
1775033688679143000,3.332142822265625,-0.28985533118247986,0.03176496922969818,0.04459312930703163
1775033688730623500,3.38362353515625,-0.42012226581573486,-0.07101303339004517,0.07147117704153061
1775033688782104300,3.435104248046875,-0.3819431960582733,-0.14080433547496796,0.06123919412493706
1775033688833585000,3.4865849609375,-0.20937390625476837,-0.15638138353824615,0.03588830679655075
1775033688885065500,3.5380654296875,-0.1565341055393219,-0.13927717506885529,0.034208428114652634
1775033688936546000,3.589546142578125,-0.13820815086364746,-0.05513054504990578,-0.013897174037992954
1775033688988026600,3.641026611328125,-0.041386090219020844,-0.08796452730894089,0.01282816007733345
1775033689039507200,3.692507080078125,0.030543239787220955,-0.13439024984836578,0.006108647678047419
1775033689090987800,3.74398779296875,0.044440411031246185,-0.03237583488225937,-0.0021380267571657896
1775033689142468400,3.79546826171875,0.031154103577136993,-0.03787361457943916,0.005192350596189499
1775033689193949200,3.84694921875,0.029932374134659767,-0.08826996386051178,0.020769402384757996
1775033689245429800,3.8984296875,0.04108065739274025,-0.04673115536570549,-0.007635809946805239
1775033689296910300,3.949910400390625,0.0206166859716177,0.017715077847242355,-0.004276053514331579
1775033689348391000,4.001390869140625,0.007483093533664942,0.010690134018659592,-0.002901607658714056
1775033689399871500,4.05287158203125,-0.0013744457392022014,-0.03649916872382164,0.001832594396546483
1775033689451352000,4.10435205078125,-0.026878049597144127,-0.014049889519810677,0.003665188793092966
1775033689502832600,4.15583251953125,-0.04153880476951599,0.004734201822429895,0.0062613640911877155
1775033689554313200,4.207313232421875,-0.07192932814359665,-0.008399390615522861,0.014508038759231567
1775033689605794000,4.2587939453125,-0.10919208079576492,-0.003665188793092966,0.026572618633508682
1775033689657274600,4.310274658203125,-0.12782345712184906,-0.000305432389723137,0.027030766010284424
1775033689708755200,4.361755126953125,-0.1750127524137497,-0.007635809946805239,0.03298669680953026
1775033689760235800,4.41323583984375,-0.15347976982593536,-0.014202605932950974,0.03497200831770897
1775033689811716400,4.46471630859375,-0.09697478264570236,-0.0038179049734026194,0.0206166859716177
1775033689863197000,4.516197021484375,-0.012217295356094837,-0.018325943499803543,0.0001527161948615685
1775033689914677500,4.567677490234375,0.0487164668738842,-0.002290742937475443,-0.007024944759905338
1775033689966158300,4.619158447265625,0.10567960888147354,0.02214384824037552,-0.027947064489126205
1775033690017639000,4.670638916015625,0.14798198640346527,0.0308486707508564,-0.03237583488225937
1775033690069119500,4.722119384765625,0.17638720571994781,0.011759147047996521,-0.04214967042207718
1775033690120600000,4.77360009765625,0.18066325783729553,-0.005039634648710489,-0.053756099194288254
1775033690172080600,4.82508056640625,0.12843431532382965,0.005803215317428112,-0.03634645417332649
1775033690223561200,4.876561279296875,0.08384118974208832,0.010995565913617611,-0.02260199747979641
1775033690275041800,4.928041748046875,0.03802633285522461,-0.004123337101191282,-0.01740964688360691
1775033690326522400,4.9795224609375,0.011300998739898205,-0.03145953640341759,-0.006414080038666725
1775033690378003000,5.0310029296875,-0.023518294095993042,-0.02611446939408779,0.0010690133785828948
1775033690429483800,5.08248388671875,-0.0334448479115963,-0.01649334840476513,0.0054977829568088055
1775033690480964400,5.13396435546875,-0.03298669680953026,-0.020158538594841957,0.008246674202382565
1775033690532445000,5.18544482421875,-0.04520399495959282,-0.007788525894284248,0.005650499369949102
1775033690583925500,5.236925537109375,-0.03955349326133728,-0.007024944759905338,0.016798781231045723
1775033690635406000,5.288406005859375,-0.04917461425065994,-0.0019853105768561363,0.01893680728971958
1775033690686886700,5.33988671875,-0.06826414167881012,0.0010690133785828948,0.013744457624852657
1775033690738367200,5.3913671875,-0.08124501258134842,0.000305432389723137,0.01649334840476513
1775033690789848000,5.44284814453125,-0.0847574844956398,-0.012370011769235134,0.019853105768561363
1775033690841328600,5.49432861328125,-0.07131846249103546,-0.004428769461810589,0.011606430634856224
1775033690892809200,5.545809326171875,-0.02779434807598591,-0.007177661173045635,0.010384701192378998
1775033690944289800,5.597289794921875,-0.0038179049734026194,0.0009162971982732415,0.013133592903614044
1775033690995770400,5.648770263671875,0.006108647678047419,0.016798781231045723,0.004581485874950886
1775033691047251000,5.7002509765625,0.0102319847792387,0.03436114266514778,0.005345067009329796
1775033691098731500,5.7517314453125,0.02214384824037552,0.0461202897131443,0.0021380267571657896
1775033691150212400,5.80321240234375,0.03711003437638283,0.030543239787220955,-0.003359756199643016
1775033691201693000,5.85469287109375,0.03802633285522461,0.009315688163042068,-0.012675444595515728
1775033691253173500,5.906173583984375,0.034666575491428375,0.03237583488225937,-0.011453714221715927
1775033691304654000,5.957654052734375,0.04535670951008797,0.04001164436340332,-0.019394956529140472
1775033691356134700,6.009134765625,0.05497783049941063,0.025809036567807198,-0.02779434807598591
1775033691407615200,6.060615234375,0.05451968312263489,0.021227551624178886,-0.016187917441129684
1775033691459095800,6.112095703125,0.020311253145337105,0.013439024798572063,-0.009773836471140385
1775033691510576400,6.163576416015625,0.014508038759231567,0.019394956529140472,-0.009315688163042068
1775033691562057200,6.21505712890625,0.027030766010284424,0.025503603741526604,0
1775033691613537800,6.266537841796875,0.0038179049734026194,0.025961752980947495,-0.0013744457392022014
1775033691665018400,6.318018310546875,-0.0062613640911877155,0.026419902220368385,0.0030543238390237093
1775033691716499000,6.3694990234375,-0.030085090547800064,0.008246674202382565,0.010995565913617611
1775033691767979500,6.4209794921875,-0.03558287397027016,0.027947064489126205,0.01695149764418602
1775033691819460000,6.472460205078125,-0.04764745384454727,0.031612250953912735,0.017867794260382652
1775033691870940700,6.523940673828125,-0.04841103404760361,0.01435532234609127,0.016646064817905426
1775033691922421500,6.57542138671875,-0.037720900028944016,0.0025961752980947495,0.018173227086663246
1775033691973902000,6.626902099609375,-0.007483093533664942,0.004886918235570192,0.007483093533664942
1775033692025382700,6.678382568359375,0.0334448479115963,0.013439024798572063,-0.0154243353754282
1775033692076863200,6.72986328125,0.06841685622930527,0.004276053514331579,-0.013133592903614044
1775033692128343800,6.78134375,0.10109812021255493,0.01908952370285988,-0.024434590712189674
1775033692179824400,6.832824462890625,0.11835505068302155,0.008399390615522861,-0.032070402055978775
1775033692231305200,6.88430517578125,0.08933897316455841,-0.008704823441803455,-0.020769402384757996
1775033692282785800,6.935785888671875,0.03894263133406639,0.005803215317428112,-0.015271619893610477
1775033692334266400,6.987266357421875,-0.006719512399286032,-0.011911863461136818,-0.0021380267571657896
1775033692385747000,7.038746826171875,-0.04413498193025589,-0.003970621153712273,0.007024944759905338
1775033692437227500,7.0902275390625,-0.10201441496610641,-0.012980876490473747,0.018631376326084137
1775033692488708000,7.1417080078125,-0.1928805559873581,-0.006719512399286032,0.03451386094093323
1775033692540188700,7.193188720703125,-0.23029601573944092,-0.012980876490473747,0.049480047076940536
1775033692591669200,7.244669189453125,-0.2380845546722412,-0.013133592903614044,0.05253437161445618
1775033692643150000,7.296150146484375,-0.20662501454353333,-0.025961752980947495,0.050090912729501724
1775033692694630700,7.347630615234375,-0.1727220118045807,-0.036651886999607086,0.04734202101826668
1775033692746111200,7.399111328125,-0.1776089370250702,-0.016340631991624832,0.035124726593494415
1775033692797591800,7.450591796875,-0.16126830875873566,0.0009162971982732415,0.04062250629067421
1775033692849072400,7.502072265625,-0.10415244847536087,0.0154243353754282,0.022449281066656113
1775033692900553000,7.553552978515625,-0.06246092543005943,-0.006719512399286032,0.022754713892936707
1775033692952033800,7.60503369140625,-0.02214384824037552,-0.004276053514331579,0.011606430634856224
1775033693003514400,7.656514404296875,0.01847865991294384,0,-0.003359756199643016
1775033693054995000,7.707994873046875,0.04550942778587341,0.019700389355421066,-0.010995565913617611
1775033693106475500,7.7594755859375,0.05818486958742142,0.008246674202382565,-0.016340631991624832
1775033693157956000,7.8109560546875,0.08460476994514465,0.0027488914784044027,-0.02214384824037552
1775033693209436700,7.862436767578125,0.08139773458242416,-0.007941242307424545,-0.025809036567807198
1775033693260917200,7.913917236328125,0.060322895646095276,-0.0021380267571657896,-0.017867794260382652
1775033693312398000,7.965398193359375,0.046883873641490936,0.006414080038666725,-0.015271619893610477
1775033693363878700,8.016878662109375,0.0386371985077858,-0.009010255336761475,-0.005803215317428112
1775033693415359200,8.068359130859376,0.03894263133406639,-0.007941242307424545,0.004428769461810589
1775033693466839800,8.11983984375,0.05070177838206291,0.004123337101191282,0.006108647678047419
1775033693518320400,8.1713203125,0.054214250296354294,0.018173227086663246,0.001679878099821508
1775033693569801000,8.222801025390625,0.049021899700164795,0.034666575491428375,0.009010255336761475
1775033693621281500,8.274281494140626,0.025350889191031456,0.003665188793092966,0.009773836471140385
1775033693672762400,8.325762451171874,0.01511890348047018,0.004886918235570192,0.010690134018659592
1775033693724243000,8.377242919921875,0.0062613640911877155,-0.0021380267571657896,-0.003665188793092966
1775033693775723500,8.4287236328125,0.035735588520765305,-0.00045814859913662076,0.007177661173045635
1775033693827204000,8.4802041015625,0.02306014485657215,-0.000610864779446274,-0.013439024798572063
1775033693878684700,8.5316845703125,0.016187917441129684,-0.025809036567807198,-0.003665188793092966
1775033693930165200,8.583165283203124,-0.02977965772151947,-0.037262752652168274,-0.024434590712189674
1775033693981645800,8.634645751953125,0.0007635809597559273,-0.028863361105322838,-0.003512472379952669
1775033694033126400,8.68612646484375,-0.002901607658714056,-0.05787943676114082,0.022907428443431854
1775033694084607200,8.737607177734375,-0.04993819445371628,-0.043982263654470444,0.011148282326757908
1775033694136087800,8.789087890625,-0.056657709181308746,-0.02626718580722809,0.017867794260382652
1775033694187568400,8.840568359375,-0.010842849500477314,-0.02626718580722809,0.023976443335413933
1775033694239049000,8.892049072265625,0.10827577859163284,-0.06475166976451874,0.015271619893610477
1775033694290529500,8.943529541015625,0.1455385386943817,-0.05589412897825241,0.012217295356094837
1775033694342010000,8.995010009765625,0.09666935354471207,-0.036651886999607086,0.024892739951610565
1775033694393490700,9.04649072265625,0.027030766010284424,-0.003970621153712273,0.009315688163042068
1775033694444971300,9.09797119140625,0.25152358412742615,-0.0386371985077858,-0.01435532234609127
1775033694496452000,9.1494521484375,0.22510367631912231,-0.06643154472112656,-0.006872228812426329
1775033694547932700,9.2009326171875,0.03802633285522461,0.07223475724458694,0.009162971749901772
1775033694599413200,9.252413330078125,0.06520981341600418,0.11056652665138245,0.007483093533664942
1775033694650893800,9.303893798828126,0.030695954337716103,0.0824667438864708,-0.03252854943275452
1775033694702374400,9.35537451171875,0.05635227635502815,0.023823726922273636,-0.018325943499803543
1775033694753855000,9.40685498046875,0.02367101050913334,0.022296564653515816,-0.017562363296747208
1775033694805335600,9.45833544921875,-0.041386090219020844,-0.018784092739224434,0.0021380267571657896
1775033694856816000,9.509816162109376,-0.1153007298707962,-0.07009673118591309,0.02825249545276165
1775033694908296700,9.561296630859376,-0.12354740500450134,-0.049632761627435684,0.032070402055978775
1775033694959777300,9.61277734375,-0.12553271651268005,0.003665188793092966,0.029016077518463135
1775033695011257900,9.6642578125,-0.12843431532382965,0.041844237595796585,0.023823726922273636
1775033695062738700,9.71573876953125,-0.11102467030286789,0.001221729558892548,0.026572618633508682
1775033695114219300,9.76721923828125,-0.06750056147575378,-0.011911863461136818,0.012217295356094837
1775033695165699800,9.818699951171874,-0.02611446939408779,0.01908952370285988,0.002290742937475443
1775033695217180400,9.870180419921875,0.0019853105768561363,0.029016077518463135,0
1775033695268661000,9.921660888671875,0.042913250625133514,0.02153298258781433,-0.013897174037992954
1775033695320141600,9.9731416015625,0.11468986421823502,-0.005345067009329796,-0.023212861269712448
1775033695371622100,10.0246220703125,0.15485422313213348,0.005803215317428112,-0.0334448479115963
1775033695423102700,10.076102783203124,0.16661337018013,0.004581485874950886,-0.03894263133406639
1775033695474583300,10.127583251953125,0.1899789422750473,0.021838415414094925,-0.04566214233636856
1775033695526063900,10.17906396484375,0.21685700118541718,0.008093958720564842,-0.04550942778587341
1775033695577544400,10.23054443359375,0.2156352698802948,0.013744457624852657,-0.039248060435056686
1775033695629025000,10.28202490234375,0.18829907476902008,0.014049889519810677,-0.037262752652168274
1775033695680505600,10.333505615234374,0.14248420298099518,-0.002901607658714056,-0.03145953640341759
1775033695731986200,10.384986083984375,0.08811724185943604,-0.005650499369949102,-0.02107483521103859
1775033695783467000,10.436467041015625,0.03527744114398956,-0.01649334840476513,-0.006872228812426329
1775033695834947600,10.487947509765625,-0.01954767294228077,-0.015577051788568497,0.001679878099821508
1775033695886428200,10.53942822265625,-0.06887500733137131,-0.014202605932950974,0.01649334840476513
1775033695937908700,10.59090869140625,-0.1178968995809555,0.0027488914784044027,0.02718348242342472
1775033695989389300,10.642389404296875,-0.1718057245016098,-0.0009162971982732415,0.031001387163996696
1775033696040870000,10.693869873046875,-0.20112723112106323,-0.008857538923621178,0.04413498193025589
1775033696092350500,10.7453505859375,-0.2133445292711258,-0.0062613640911877155,0.04306596517562866
1775033696143831000,10.7968310546875,-0.22067490220069885,0.004123337101191282,0.044898562133312225
1775033696195311600,10.8483115234375,-0.2055560052394867,-0.02000582218170166,0.036193739622831345
1775033696246792200,10.899792236328125,-0.16508620977401733,-0.017715077847242355,0.02871064469218254
1775033696298272800,10.951272705078125,-0.12935061752796173,0.021380268037319183,0.024434590712189674
1775033696349753300,11.00275341796875,-0.08093958348035812,0.018173227086663246,0.013744457624852657
1775033696401234000,11.05423388671875,0.011453714221715927,0.003512472379952669,-0.003512472379952669
1775033696452714500,11.105714599609374,0.09376774728298187,0.025350889191031456,-0.03787361457943916
1775033696504195000,11.157195068359375,0.12660172581672668,-0.000305432389723137,-0.037262752652168274
1775033696555675600,11.208675537109375,0.11652245372533798,0.003970621153712273,-0.021685699000954628
1775033696607156200,11.26015625,0.10476330667734146,-0.001221729558892548,-0.023976443335413933
1775033696658636800,11.31163671875,0.08323032408952713,-0.007177661173045635,-0.024281874299049377
1775033696710117600,11.36311767578125,0.03451386094093323,-0.02672533318400383,-0.009162971749901772
1775033696761598000,11.414597900390625,-0.012675444595515728,-0.011759147047996521,-0.005345067009329796
1775033696813078800,11.466078857421875,-0.04566214233636856,-0.010995565913617611,0.004581485874950886
1775033696864559400,11.517559326171876,-0.0792597085237503,-0.01740964688360691,0.012522728182375431
1775033696916040000,11.5690400390625,-0.10369429737329483,-0.028557928279042244,0.018325943499803543
1775033696967520500,11.6205205078125,-0.10888664424419403,-0.02458730712532997,0.01649334840476513
1775033697019001000,11.6720009765625,-0.1078176349401474,-0.008246674202382565,0.018631376326084137
1775033697070481700,11.723481689453125,-0.10369429737329483,0.001221729558892548,0.009010255336761475
1775033697121962200,11.774962158203126,-0.11545344442129135,-0.06719512492418289,0.027336198836565018
1775033697173442800,11.82644287109375,-0.16584978997707367,-0.18860450387001038,0.05971203371882439
1775033697224923400,11.87792333984375,-0.08933897316455841,0.047494735568761826,0.004276053514331579
1775033697276404000,11.929404052734375,-0.07406735420227051,-0.005650499369949102,0.036193739622831345
1775033697327884500,11.980884521484375,-0.05070177838206291,0.02626718580722809,0.0032070400193333626
1775033697379365000,12.032365234375,-0.013439024798572063,0.017867794260382652,0.007024944759905338
1775033697430845700,12.083845703125,0.007788525894284248,-0.0030543238390237093,0.000305432389723137
1775033697482326300,12.135326171875,0.028557928279042244,-0.001221729558892548,0
1775033697533806800,12.186806884765625,0.023976443335413933,-0.013744457624852657,0.03298669680953026
1775033697585287400,12.238287353515625,0.017256930470466614,-0.005803215317428112,0.032681263983249664
1775033697636768000,12.28976806640625,0.01802051067352295,0.006719512399286032,0.017715077847242355
1775033697688248600,12.34124853515625,0.027947064489126205,-0.010079269297420979,0.013133592903614044
1775033697739729200,12.392729248046875,0.04841103404760361,-0.006414080038666725,-0.000610864779446274
1775033697791209700,12.444209716796875,0.06963858753442764,0.011148282326757908,-0.009162971749901772
1775033697842690300,12.495690185546875,0.0639880821108818,0.015271619893610477,0.009621120058000088
1775033697894171000,12.5471708984375,0.042913250625133514,-0.027030766010284424,0.006414080038666725
1775033697945651500,12.5986513671875,0.03405570983886719,-0.006108647678047419,0.00946840364485979
1775033697997132000,12.650132080078125,0.011759147047996521,-0.003359756199643016,0.02626718580722809
1775033698048612900,12.70161279296875,-0.005345067009329796,-0.005192350596189499,0.020922118797898293
1775033698100093400,12.753093505859376,-0.03909534588456154,-0.004123337101191282,0.020769402384757996
1775033698151574000,12.804573974609376,-0.037262752652168274,0.018631376326084137,0.01435532234609127
1775033698203054600,12.8560546875,0.001679878099821508,0.024892739951610565,-0.026572618633508682
1775033698254535200,12.90753515625,-0.036651886999607086,0.05253437161445618,-0.051618073135614395
1775033698306015700,12.959015625,-0.028863361105322838,0.08155044913291931,-0.060933761298656464
1775033698357496300,13.010496337890626,-0.018173227086663246,0.0616973415017128,-0.04153880476951599
1775033698408977000,13.061976806640626,-0.012370011769235134,0.015577051788568497,-0.019242240116000175
1775033698460457500,13.11345751953125,-0.011606430634856224,-0.001221729558892548,-0.012217295356094837
1775033698511938000,13.16493798828125,0.000305432389723137,0.014966187067329884,-0.0025961752980947495
1775033698563418600,13.216418701171875,0.03817904740571976,0.008246674202382565,-0.0021380267571657896
1775033698614899200,13.267899169921876,0.07009673118591309,-0.006414080038666725,-0.005345067009329796
1775033698666379800,13.3193798828125,0.11484257876873016,-0.00946840364485979,-0.011911863461136818
1775033698717860400,13.3708603515625,0.14798198640346527,0,-0.018325943499803543
1775033698769341000,13.4223408203125,0.16905683279037476,-0.007483093533664942,-0.02412915788590908
1775033698820821500,13.473821533203125,0.15531237423419952,0.0054977829568088055,-0.033597562462091446
1775033698872302000,13.525302001953126,0.10705405473709106,-0.009621120058000088,-0.01893680728971958
1775033698923782700,13.57678271484375,0.050549060106277466,-0.002443459117785096,-0.019853105768561363
1775033698975263200,13.62826318359375,0.005192350596189499,-0.010079269297420979,-0.005803215317428112
1775033699026743800,13.679743896484375,-0.043829549103975296,-0.008246674202382565,0.0013744457392022014
1775033699078224400,13.731224365234375,-0.09712749719619751,-0.03634645417332649,0.002290742937475443
1775033699129705000,13.782705078125,-0.16218459606170654,-0.021685699000954628,0.023976443335413933
1775033699181185800,13.834185791015624,-0.18860450387001038,-0.0009162971982732415,0.027336198836565018
1775033699232666400,13.885666259765625,-0.1640172004699707,-0.016340631991624832,0.029016077518463135
1775033699284146700,13.937146728515625,-0.12660172581672668,-0.029474224895238876,0.025961752980947495
1775033699335627300,13.988627197265625,-0.06811141967773438,-0.016798781231045723,0.014049889519810677
1775033699387107800,14.04010791015625,-0.01588248461484909,0.03741546720266342,0.003665188793092966
1775033699438588400,14.09158837890625,0.029474224895238876,0.021991131827235222,-0.002443459117785096
1775033699490069000,14.143069091796875,0.07498364895582199,0.006566796451807022,-0.012370011769235134
1775033699541549600,14.194549560546875,0.10461059212684631,-0.007788525894284248,-0.00946840364485979
1775033699593030100,14.246030029296875,0.1207985132932663,0.010384701192378998,-0.01511890348047018
1775033699644510700,14.2975107421875,0.13973531126976013,0.011911863461136818,-0.021838415414094925
1775033699695991600,14.348991455078124,0.1415679156780243,0.02107483521103859,-0.022907428443431854
1775033699747472000,14.400471923828125,0.14523309469223022,0.000610864779446274,-0.02825249545276165
1775033699798952700,14.45195263671875,0.12232567369937897,0.012980876490473747,-0.023365577682852745
1775033699850433000,14.50343310546875,0.10842850059270859,-0.012217295356094837,-0.02626718580722809
1775033699901913900,14.554913818359376,0.07330377399921417,-0.021380268037319183,-0.015577051788568497
1775033699953394400,14.60639453125,0.04780016839504242,-0.008857538923621178,-0.0102319847792387
1775033700004875000,14.657875,0.01649334840476513,-0.007483093533664942,-0.005650499369949102
1775033700056355600,14.70935546875,-0.017104214057326317,-0.020769402384757996,-0.001679878099821508
1775033700107836200,14.760836181640625,-0.05513054504990578,-0.018784092739224434,0.005039634648710489
1775033700159316700,14.812316650390626,-0.09178243577480316,-0.01282816007733345,0.01359174121171236
1775033700210797300,14.86379736328125,-0.11591159552335739,0.004581485874950886,0.014202605932950974
1775033700262278000,14.91527783203125,-0.13240493834018707,-0.007635809946805239,0.01588248461484909
1775033700313758500,14.966758544921875,-0.12751802802085876,0.009010255336761475,0.022907428443431854
1775033700365239000,15.018239013671876,-0.12110394239425659,0.0009162971982732415,0.024740023538470268
1775033700416719600,15.0697197265625,-0.09239330142736435,0.0032070400193333626,0.01649334840476513
1775033700468200200,15.1212001953125,-0.07559451460838318,0.010995565913617611,0.017104214057326317
1775033700519680800,15.1726806640625,-0.05329795181751251,0.02764163166284561,0.013744457624852657
1775033700571161300,15.224161376953125,-0.015729768201708794,0.011911863461136818,0.007024944759905338
1775033700622642000,15.275641845703126,0.02306014485657215,0.000305432389723137,0.004276053514331579
1775033700674122500,15.32712255859375,0.05787943676114082,0.004123337101191282,0.001679878099821508
1775033700725603000,15.37860302734375,0.09147699922323227,0.036651886999607086,-0.007941242307424545
1775033700777083600,15.430083740234375,0.12125665694475174,0.012980876490473747,-0.014966187067329884
1775033700828564200,15.481564208984375,0.13301581144332886,0.017715077847242355,-0.017867794260382652
1775033700880044800,15.533044921875,0.13484840095043182,0.017867794260382652,-0.021380268037319183
1775033700931525600,15.584525634765624,0.12415826320648193,0.01649334840476513,-0.020158538594841957
1775033700983006200,15.636006103515625,0.10659590363502502,0.002443459117785096,-0.0206166859716177
1775033701034486800,15.68748681640625,0.09804379940032959,0.000305432389723137,-0.01893680728971958
1775033701085967400,15.73896728515625,0.0795651376247406,-0.006108647678047419,-0.01588248461484909
1775033701137448000,15.790447998046876,0.051618073135614395,-0.0013744457392022014,-0.012675444595515728
1775033701188928500,15.841928466796874,0.03940077871084213,-0.009010255336761475,-0.010079269297420979
1775033701240409000,15.8934091796875,0.013897174037992954,-0.013439024798572063,-0.003665188793092966
1775033701291889700,15.9448896484375,-0.03711003437638283,-0.010690134018659592,0.001221729558892548
1775033701343370200,15.996370361328125,-0.07254019379615784,-0.010537417605519295,0.011911863461136818
1775033701394850800,16.047850830078126,-0.0844520553946495,-0.010690134018659592,0.013133592903614044
1775033701446331400,16.099331298828126,-0.09957095980644226,-0.006414080038666725,0.01740964688360691
1775033701497812000,16.15081201171875,-0.10659590363502502,-0.019700389355421066,0.000305432389723137
1775033701549292500,16.20229248046875,-0.16997312009334564,0.008552107028663158,-0.035124726593494415
1775033701600773000,16.253773193359375,-0.2698495090007782,0.0009162971982732415,0.03695731982588768
1775033701652253700,16.305253662109376,-0.2942841053009033,-0.003512472379952669,0.044898562133312225
1775033701703734300,16.356734375,-0.2698495090007782,-0.06505709886550903,0.03451386094093323
1775033701755214800,16.40821484375,-0.25274530053138733,-0.031001387163996696,0.03802633285522461
1775033701806695400,16.4596953125,-0.205861434340477,-0.02367101050913334,0.03649916872382164
1775033701858176000,16.511176025390625,-0.15867212414741516,0.001679878099821508,0.011911863461136818
1775033701909656600,16.562656494140626,-0.09117157012224197,0.0021380267571657896,0.0009162971982732415
1775033701961137200,16.61413720703125,-0.013286309316754341,0.01802051067352295,-0.000305432389723137
1775033702012617700,16.66561767578125,0.05024362727999687,-0.021838415414094925,-0.00946840364485979
1775033702064098300,16.717098388671875,0.0746782198548317,-0.002443459117785096,-0.014202605932950974
1775033702115579000,16.768578857421875,0.08674279600381851,0.012980876490473747,-0.023976443335413933
1775033702167059500,16.8200595703125,0.08384118974208832,0.02107483521103859,-0.012370011769235134
1775033702218540000,16.8715400390625,0.08842267841100693,-0.0025961752980947495,-0.017715077847242355
1775033702270020600,16.9230205078125,0.07742711156606674,-0.016187917441129684,-0.01649334840476513
1775033702321501200,16.974501220703125,0.06704241037368774,-0.019242240116000175,-0.010384701192378998
1775033702372981800,17.025981689453126,0.047952886670827866,-0.010384701192378998,-0.013133592903614044
1775033702424462300,17.07746240234375,0.012522728182375431,0.001221729558892548,-0.003359756199643016
1775033702475943000,17.12894287109375,-0.015577051788568497,-0.013897174037992954,0.002443459117785096
1775033702527423500,17.180423583984375,-0.020311253145337105,-0.016187917441129684,0.0038179049734026194
1775033702578904000,17.231904052734375,-0.033597562462091446,-0.009926552884280682,0.007330377586185932
1775033702630384600,17.283384521484376,-0.0383317656815052,-0.012217295356094837,-0.001679878099821508
1775033702681865200,17.334865234375,-0.0461202897131443,0.0001527161948615685,0.0054977829568088055
1775033702733345800,17.386345703125,-0.05787943676114082,0.016187917441129684,0.005803215317428112
1775033702784826400,17.437826416015625,-0.08292489498853683,0.009621120058000088,0.013133592903614044
1775033702836307000,17.489306884765625,-0.06734783947467804,-0.007788525894284248,0.005803215317428112
1775033702887787500,17.54078759765625,-0.06765327602624893,-0.012217295356094837,0.01359174121171236
1775033702939268000,17.59226806640625,-0.06001746281981468,0.005192350596189499,0.011911863461136818
1775033702990748700,17.643748779296875,-0.06643154472112656,0.013286309316754341,0.013286309316754341
1775033703042229200,17.695229248046875,-0.007177661173045635,0.005345067009329796,0.001832594396546483
1775033703093709800,17.746709716796875,0.032070402055978775,-0.0154243353754282,0.007788525894284248
1775033703145190400,17.7981904296875,0.06872228533029556,-0.0030543238390237093,-0.0054977829568088055
1775033703196671000,17.8496708984375,0.0922405794262886,0.017715077847242355,-0.008552107028663158
1775033703248151600,17.901151611328125,0.11636973917484283,0.02107483521103859,-0.009621120058000088
1775033703299631900,17.9526318359375,0.12690715491771698,0.01435532234609127,-0.017562363296747208
1775033703351112400,18.004112548828125,0.13484840095043182,0.0054977829568088055,-0.02672533318400383
1775033703402593000,18.055593017578126,0.12385283410549164,0.0032070400193333626,-0.017715077847242355
1775033703454073600,18.107073486328126,0.10140355676412582,-0.0030543238390237093,-0.0204639695584774
1775033703505554200,18.15855419921875,0.07589995115995407,0.001679878099821508,-0.02107483521103859
1775033703557034800,18.21003466796875,0.049480047076940536,-0.006414080038666725,-0.013286309316754341
1775033703608515300,18.261515380859375,0.02153298258781433,-0.003665188793092966,0.0010690133785828948
1775033703659996000,18.312995849609376,0.003359756199643016,-0.007024944759905338,-0.005345067009329796
1775033703711476500,18.3644765625,-0.014049889519810677,0.004276053514331579,0.002443459117785096
1775033703762957000,18.41595703125,-0.021227551624178886,-0.005039634648710489,0.006719512399286032
1775033703814437600,18.467437744140625,-0.023976443335413933,-0.004276053514331579,0.005345067009329796
1775033703865918200,18.518918212890625,-0.01954767294228077,0.0102319847792387,0.009315688163042068
1775033703917398800,18.570398681640626,-0.010690134018659592,0.01435532234609127,0.006719512399286032
1775033703968879400,18.62187939453125,0.0007635809597559273,0.01588248461484909,0.000305432389723137
1775033704020360000,18.67335986328125,0.0021380267571657896,0.020769402384757996,0.001221729558892548
1775033704071840300,18.72484033203125,0.009926552884280682,-0.0054977829568088055,-0.004276053514331579
1775033704123320800,18.77632080078125,0.004581485874950886,0.005192350596189499,-0.0001527161948615685
1775033704174801400,18.827801513671876,-0.000610864779446274,0.0013744457392022014,-0.004123337101191282
1775033704226282000,18.879281982421876,-0.0032070400193333626,-0.0204639695584774,-0.009926552884280682
1775033704277762600,18.930762451171876,-0.005955931730568409,-0.016798781231045723,-0.005955931730568409
1775033704329243100,18.9822431640625,-0.023212861269712448,0.014966187067329884,0.005955931730568409
1775033704380723700,19.0337236328125,-0.028557928279042244,0.006414080038666725,0.0009162971982732415
1775033704432204300,19.085204345703126,-0.021991131827235222,-0.004886918235570192,0.003359756199643016
1775033704483684900,19.136684814453126,-0.01649334840476513,-0.010690134018659592,0.0030543238390237093
1775033704535165400,19.18816552734375,-0.010537417605519295,0.007483093533664942,0.0013744457392022014
1775033704586646000,19.23964599609375,0.005192350596189499,0.005650499369949102,0.04978547990322113
1775033704638126600,19.291126708984375,-0.0007635809597559273,-0.125074565410614,0.10766492038965225
1775033704689607200,19.342607177734376,-0.04413498193025589,-0.04306596517562866,0.06643154472112656
1775033704741087700,19.394087646484376,-0.0766635313630104,0.009926552884280682,0.04673115536570549
1775033704792568300,19.445568359375,-0.10247256606817245,0.013133592903614044,0.010079269297420979
1775033704844049000,19.497048828125,-0.14630211889743805,0.013133592903614044,-0.06612611562013626
1775033704895529200,19.548529296875,-0.15607595443725586,0.10506874322891235,-0.03145953640341759
1775033704947009800,19.600009765625,-0.11743875592947006,-0.011759147047996521,0.01954767294228077
1775033704998490400,19.651490478515626,-0.10323614627122879,-0.004886918235570192,-0.0009162971982732415
1775033705049971000,19.702970947265626,-0.07895427197217941,0.037720900028944016,0.013286309316754341
1775033705101451500,19.754451416015623,0.010384701192378998,0.016798781231045723,-0.001832594396546483
1775033705152932000,19.80593212890625,0.04535670951008797,-0.031154103577136993,-0.005345067009329796
1775033705204412700,19.85741259765625,0.06475166976451874,-0.004276053514331579,-0.008704823441803455
1775033705255893200,19.908893310546876,0.09789107739925385,-0.017867794260382652,-0.01893680728971958
1775033705307373800,19.960373779296877,0.10583232343196869,-0.03145953640341759,0.023365577682852745
1775033705358854400,20.0118544921875,0.09269873052835464,-0.039858926087617874,0.0001527161948615685
1775033705410335000,20.0633349609375,0.07162389904260635,0.0038179049734026194,0.008246674202382565
1775033705461815600,20.114815673828126,0.06337722390890121,-0.025350889191031456,-0.01893680728971958
1775033705513296100,20.166296142578126,0.01893680728971958,0.008399390615522861,-0.017256930470466614
1775033705564776700,20.217776611328127,-0.017867794260382652,0.025961752980947495,-0.01359174121171236
1775033705616257300,20.26925732421875,-0.012980876490473747,-0.0062613640911877155,-0.013744457624852657
1775033705667737600,20.320737548828124,-0.005803215317428112,-0.0054977829568088055,-0.013897174037992954
1775033705719218200,20.37221826171875,0.006872228812426329,-0.000610864779446274,-0.012980876490473747
1775033705770698800,20.42369873046875,0.028557928279042244,0.008246674202382565,-0.01359174121171236
1775033705822179300,20.475179443359377,0.050090912729501724,-0.011300998739898205,-0.007941242307424545
1775033705873660000,20.526659912109373,0.0565049909055233,-0.006108647678047419,-0.006414080038666725
1775033705925140500,20.578140380859374,0.06780599057674408,-0.006719512399286032,0.07330377399921417
1775033705976621000,20.62962109375,0.050549060106277466,-0.12614357471466064,0.07819069176912308
1775033706028101600,20.6811015625,-0.0025961752980947495,-0.013897174037992954,0.04459312930703163
1775033706079582200,20.732582275390627,-0.05406153202056885,0.04321868345141411,0.01282816007733345
1775033706131062800,20.784062744140623,-0.08231402933597565,0.004886918235570192,-0.053603384643793106
1775033706182543400,20.83554345703125,-0.12003492563962936,0.07757982611656189,-0.0795651376247406
1775033706234024000,20.88702392578125,-0.10583232343196869,0.003359756199643016,0.007024944759905338
1775033706285504500,20.93850439453125,-0.08720094710588455,0.013133592903614044,-0.023823726922273636
1775033706336985000,20.989985107421877,-0.0795651376247406,0.05482511222362518,0.016798781231045723
1775033706388465700,21.041465576171873,0.012370011769235134,0.03405570983886719,-0.010384701192378998
1775033706439946200,21.0929462890625,0.054214250296354294,-0.005192350596189499,-0.009621120058000088
1775033706491426600,21.144426513671874,0.08170316368341446,0.00946840364485979,-0.01695149764418602
1775033706542907100,21.1959072265625,0.11743875592947006,-0.007330377586185932,-0.01954767294228077
1775033706594387700,21.2473876953125,0.11255183815956116,-0.010842849500477314,-0.022296564653515816
1775033706645868300,21.298868408203123,0.09850194305181503,0.015729768201708794,-0.01847865991294384
1775033706697348900,21.350348876953124,0.1101083755493164,0.025503603741526604,-0.015271619893610477
1775033706748829400,21.401829345703124,0.11896591633558273,-0.01802051067352295,-0.021380268037319183
1775033706800310000,21.45331005859375,0.09453132748603821,-0.005803215317428112,-0.018631376326084137
1775033706851790600,21.50479052734375,0.06215549260377884,0.01649334840476513,-0.018325943499803543
1775033706903271200,21.556271240234373,0.041386090219020844,0.009773836471140385,-0.012370011769235134
1775033706954751700,21.607751708984374,0.017256930470466614,0.001832594396546483,-0.01359174121171236
1775033707006232300,21.659232421875,-0.001679878099821508,-0.014660755172371864,-0.004734201822429895
1775033707057713000,21.710712890625,-0.01802051067352295,-0.004581485874950886,0.000305432389723137
1775033707109193500,21.762193359375,-0.0334448479115963,0.010690134018659592,0.010842849500477314
1775033707160674000,21.813674072265623,-0.04413498193025589,0.005192350596189499,0.01435532234609127
1775033707212154600,21.865154541015624,-0.05940660089254379,0.012980876490473747,0.023212861269712448
1775033707263635200,21.91663525390625,-0.05604684352874756,0.009315688163042068,0.021227551624178886
1775033707315115800,21.96811572265625,-0.040775224566459656,-0.005803215317428112,0.014966187067329884
1775033707366596400,22.019596435546877,-0.02519817277789116,0.001221729558892548,0.013744457624852657
1775033707418077000,22.071076904296874,-0.011148282326757908,0.003970621153712273,0.004428769461810589
1775033707469557200,22.12255712890625,-0.001679878099821508,0.012675444595515728,0.007024944759905338
1775033707521037800,22.174037841796874,0.011148282326757908,-0.006566796451807022,-0.001221729558892548
1775033707572518400,22.225518310546875,0.02306014485657215,-0.012217295356094837,-0.004581485874950886
1775033707623999000,22.2769990234375,0.022449281066656113,-0.006719512399286032,-0.004123337101191282
1775033707675479600,22.3284794921875,0.025503603741526604,0.001832594396546483,-0.008552107028663158
1775033707726960000,22.379960205078124,0.022449281066656113,-0.005192350596189499,-0.007483093533664942
1775033707778440700,22.431440673828124,0.0206166859716177,-0.010842849500477314,-0.0054977829568088055
1775033707829921300,22.48292138671875,0.0154243353754282,-0.01435532234609127,-0.007024944759905338
1775033707881401900,22.53440185546875,0.001679878099821508,-0.01359174121171236,-0.009773836471140385
1775033707932882400,22.58588232421875,-0.016035201027989388,-0.0154243353754282,-0.008399390615522861
1775033707984363000,22.637363037109374,-0.025350889191031456,-0.008857538923621178,0.003665188793092966
1775033708035843600,22.688843505859374,-0.03023780696094036,-0.004428769461810589,0.003359756199643016
1775033708087324200,22.74032421875,-0.04046979174017906,-0.008399390615522861,0.003970621153712273
1775033708138804700,22.7918046875,-0.042913250625133514,-0.011759147047996521,-0.0013744457392022014
1775033708190285000,22.84328515625,-0.08170316368341446,-0.0154243353754282,0.008246674202382565
1775033708241765600,22.894765625,-0.11545344442129135,0.005955931730568409,0.01511890348047018
1775033708293246200,22.94624609375,-0.12110394239425659,-0.009773836471140385,0.013133592903614044
1775033708344726800,22.997726806640625,-0.10155627131462097,-0.020769402384757996,0.015577051788568497
1775033708396207400,23.049207275390625,-0.0795651376247406,-0.000610864779446274,0.014660755172371864
1775033708447688000,23.10068798828125,-0.051159925758838654,0.0019853105768561363,0.007024944759905338
1775033708499168500,23.15216845703125,-0.003359756199643016,0.0256563201546669,-0.000305432389723137
1775033708550649000,23.203649169921874,0.026419902220368385,0.014966187067329884,-0.007941242307424545
1775033708602129700,23.255129638671875,0.06246092543005943,-0.007941242307424545,-0.010079269297420979
1775033708653610200,23.3066103515625,0.12171480804681778,0.005955931730568409,-0.01649334840476513
1775033708705090800,23.3580908203125,0.14401137828826904,0.035735588520765305,-0.016187917441129684
1775033708756571400,23.4095712890625,0.11468986421823502,0.028099779039621353,-0.013439024798572063
1775033708808052000,23.461052001953124,0.09407317638397217,0.03145953640341759,-0.009010255336761475
1775033708859532300,23.5125322265625,0.05971203371882439,0.05604684352874756,-0.0015271619195118546
1775033708911012900,23.564012939453125,0.02000582218170166,0.06383536756038666,-0.003970621153712273
1775033708962493400,23.615493408203125,0.005039634648710489,0.01588248461484909,0.000610864779446274
1775033709013974000,23.66697412109375,-0.017256930470466614,0.009773836471140385,0.008552107028663158
1775033709065454600,23.71845458984375,-0.05024362727999687,0.03023780696094036,0.01695149764418602
1775033709116935200,23.76993505859375,-0.06062832847237587,0.01740964688360691,0.016340631991624832
1775033709168415700,23.821415771484375,-0.052076224237680435,0.013897174037992954,0.011606430634856224
1775033709219896300,23.872896240234375,-0.035124726593494415,0.012522728182375431,0.0054977829568088055
1775033709271377000,23.924376953125,-0.03191768378019333,0.007330377586185932,0.007483093533664942
1775033709322857500,23.975857421875,-0.032681263983249664,0.007330377586185932,0.004276053514331579
1775033709374338000,24.027338134765625,-0.024434590712189674,0.011148282326757908,0.002290742937475443
1775033709425818400,24.078818359375,-0.003512472379952669,-0.009010255336761475,0.004428769461810589
1775033709477299000,24.130298828125,0.018784092739224434,-0.016798781231045723,-0.003665188793092966
1775033709528779500,24.181779541015626,0.010690134018659592,0.0027488914784044027,-0.006719512399286032
1775033709580260000,24.233260009765626,0.005955931730568409,0.032070402055978775,0.00045814859913662076
1775033709631740700,24.28474072265625,0.011759147047996521,0.012370011769235134,-0.001221729558892548
1775033709683221200,24.33622119140625,0.011300998739898205,0.047494735568761826,-0.0007635809597559273
1775033709734701800,24.387701904296875,-0.005650499369949102,0.04718930274248123,-0.014049889519810677
1775033709786182400,24.439182373046876,0.0030543238390237093,-0.0027488914784044027,0.0010690133785828948
1775033709837662700,24.490662841796876,0.0007635809597559273,0.001832594396546483,0.0027488914784044027
1775033709889143300,24.542143310546876,0.014049889519810677,0.03145953640341759,-0.001832594396546483
1775033709940624000,24.593623779296873,0.017104214057326317,-0.01954767294228077,0.0001527161948615685
1775033709992104400,24.6451044921875,-0.0032070400193333626,-0.037262752652168274,0.007024944759905338
1775033710043585000,24.6965849609375,0.002290742937475443,0.011911863461136818,-0.01954767294228077
1775033710095065600,24.748065673828126,0.0021380267571657896,-0.02626718580722809,0.003512472379952669
1775033710146546200,24.799546142578127,0.02932151034474373,0.02153298258781433,-0.012217295356094837
1775033710198026800,24.85102685546875,0.044440411031246185,-0.0030543238390237093,0.000610864779446274
1775033710249507000,24.902507080078124,0.04474584385752678,0.01511890348047018,0.007483093533664942
1775033710300987600,24.953987548828124,0.007788525894284248,-0.04001164436340332,0.004581485874950886
1775033710352468200,25.00546826171875,-0.02214384824037552,-0.044898562133312225,0.020769402384757996
1775033710403948800,25.05694873046875,-0.02611446939408779,-0.023823726922273636,0.019242240116000175
1775033710455429400,25.108429443359373,-0.04825831577181816,-0.009010255336761475,0.02672533318400383
1775033710506910000,25.159909912109374,-0.08643736690282822,-0.012217295356094837,0.034208428114652634
1775033710558390500,25.211390625,-0.10399972647428513,0.004734201822429895,0.04917461425065994
1775033710609870800,25.262870849609374,-0.11911863088607788,0.020922118797898293,0.06627883017063141
1775033710661351400,25.314351318359375,-0.15286891162395477,-0.03298669680953026,0.0639880821108818
1775033710712832000,25.36583203125,-0.1230892539024353,0.031154103577136993,0.059864748269319534
1775033710764312600,25.4173125,-0.12232567369937897,0.036804601550102234,0.04886918142437935
1775033710815793200,25.468793212890624,-0.07131846249103546,-0.011300998739898205,0.041844237595796585
1775033710867273700,25.520273681640624,-0.03283398225903511,0.01649334840476513,0.0204639695584774
1775033710918754300,25.57175439453125,-0.013897174037992954,0.010384701192378998,0.020311253145337105
1775033710970234600,25.623234619140625,-0.029474224895238876,-0.03817904740571976,0.016340631991624832
1775033711021715200,25.674715087890625,0.0062613640911877155,-0.02672533318400383,-0.017104214057326317
1775033711073195800,25.72619580078125,0.0021380267571657896,-0.0795651376247406,-0.018325943499803543
1775033711124676400,25.77767626953125,0.007483093533664942,-0.09101885557174683,-0.021685699000954628
1775033711176157000,25.829156982421875,0.02519817277789116,-0.05283980444073677,-0.009621120058000088
1775033711227637500,25.880637451171875,0.04978547990322113,-0.0412333719432354,-0.01695149764418602
1775033711279117800,25.932117919921875,0.07360920310020447,-0.07009673118591309,-0.04825831577181816
1775033711330598400,25.983598388671876,0.08613193035125732,-0.09132428467273712,-0.035124726593494415
1775033711382079000,26.035078857421876,0.05558869615197182,-0.004123337101191282,-0.006719512399286032
1775033711433559600,26.0865595703125,0.02000582218170166,0.005650499369949102,0.011453714221715927
1775033711485040000,26.1380400390625,-0.0383317656815052,0.001832594396546483,0.03390299528837204
1775033711536520700,26.189520751953125,-0.1207985132932663,0.009162971749901772,0.0412333719432354
1775033711588001000,26.2410009765625,-0.1078176349401474,0.008857538923621178,0.011759147047996521
1775033711639481600,26.292481689453126,-0.06246092543005943,-0.028557928279042244,0.017562363296747208
1775033711690962200,26.343962158203126,-0.06673697382211685,-0.04520399495959282,0.02825249545276165
1775033711742442800,26.39544287109375,-0.0154243353754282,-0.020158538594841957,0.01206457894295454
1775033711793923300,26.44692333984375,0.02977965772151947,-0.02519817277789116,0.001221729558892548
1775033711845404000,26.49840380859375,0.04780016839504242,-0.012217295356094837,0.007024944759905338
1775033711896884200,26.54988427734375,0.06200277432799339,0.027336198836565018,-0.005039634648710489
1775033711948364800,26.60136474609375,0.06551524996757507,0.04673115536570549,0.006108647678047419
1775033711999845400,26.652845458984373,0.03741546720266342,0.03695731982588768,0.0054977829568088055
1775033712051326000,26.704325927734374,-0.005192350596189499,0.03237583488225937,0.006719512399286032
1775033712102806500,26.755806640625,-0.01802051067352295,0.03497200831770897,0.001832594396546483
1775033712154287000,26.807287109375,-0.037262752652168274,-0.001832594396546483,0.009773836471140385
1775033712205767400,26.858767333984375,-0.03894263133406639,0.01893680728971958,0.01282816007733345
1775033712257248000,26.910248046875,-0.02214384824037552,0.01893680728971958,0.006108647678047419
1775033712308728600,26.961728515625,-0.030085090547800064,0.0054977829568088055,0.012370011769235134
1775033712360209200,27.013209228515624,-0.02260199747979641,-0.004276053514331579,0.006566796451807022
1775033712411689700,27.064689697265624,-0.02764163166284561,0.03023780696094036,-0.000610864779446274
1775033712463170300,27.11617041015625,-0.019700389355421066,0.026878049597144127,-0.006414080038666725
1775033712514650600,27.167650634765625,0.014508038759231567,-0.00946840364485979,-0.007941242307424545
1775033712566131200,27.219131103515625,0.024740023538470268,0.015577051788568497,-0.00946840364485979
1775033712617611800,27.27061181640625,0.018784092739224434,-0.000610864779446274,-0.001679878099821508
1775033712669092400,27.32209228515625,0.025809036567807198,0.003359756199643016,-0.012522728182375431
1775033712720573000,27.373572998046875,0.01649334840476513,0.01206457894295454,-0.006719512399286032
1775033712772053500,27.425053466796875,0.028863361105322838,0.029474224895238876,-0.014049889519810677
1775033712823534000,27.4765341796875,0.030085090547800064,0.011300998739898205,-0.02412915788590908
1775033712875014400,27.528014404296876,-0.017562363296747208,-0.023823726922273636,-0.016798781231045723
1775033712926495000,27.579494873046876,-0.014813470654189587,-0.011606430634856224,-0.021685699000954628
1775033712977975600,27.6309755859375,0.04535670951008797,0.03023780696094036,-0.02214384824037552
1775033713029456100,27.6824560546875,0.004734201822429895,0.0513126403093338,-0.001679878099821508
1775033713080936700,27.733936767578125,-0.021227551624178886,0.037720900028944016,-0.005955931730568409
1775033713132417300,27.785417236328126,-0.010842849500477314,0.030695954337716103,-0.010690134018659592
1775033713183897600,27.836897705078126,-0.011759147047996521,0.02672533318400383,-0.004276053514331579
1775033713235378200,27.888378173828126,0.009162971749901772,0.020311253145337105,-0.0054977829568088055
1775033713286858800,27.939858642578123,0.023976443335413933,-0.0030543238390237093,0.001679878099821508
1775033713338339300,27.99133935546875,0.03191768378019333,0.03283398225903511,-0.003970621153712273
1775033713389820000,28.04281982421875,0.02611446939408779,0.03756818547844887,-0.0032070400193333626
1775033713441300500,28.094300537109376,0.03023780696094036,-0.007330377586185932,-0.0054977829568088055
1775033713492781000,28.145781005859376,0.03252854943275452,-0.0021380267571657896,-0.01740964688360691
1775033713544261400,28.197261474609373,0.007941242307424545,0.03023780696094036,-0.012980876490473747
1775033713595742000,28.248741943359374,-0.0154243353754282,0.037262752652168274,-0.007635809946805239
1775033713647222500,28.300222412109374,-0.023212861269712448,0.04306596517562866,-0.009162971749901772
1775033713698703000,28.351703125,-0.03481929376721382,0.02871064469218254,-0.001221729558892548
1775033713750183700,28.40318359375,-0.0383317656815052,0.028405211865901947,-0.0010690133785828948
1775033713801664300,28.454664306640623,-0.04062250629067421,0.03237583488225937,-0.003665188793092966
1775033713853144600,28.50614453125,-0.04046979174017906,0.055741410702466965,-0.006414080038666725
1775033713904625200,28.557625244140624,-0.0154243353754282,0.06154462695121765,-0.014508038759231567
1775033713956105700,28.609105712890624,0.001221729558892548,0.05711585655808449,-0.016035201027989388
1775033714007586300,28.66058642578125,0.010537417605519295,0.06230820715427399,-0.01695149764418602
1775033714059067000,28.71206689453125,0.0102319847792387,0.13530655205249786,-0.05253437161445618
1775033714110547500,28.76354736328125,0.021685699000954628,0.15958842635154724,-0.060933761298656464
1775033714162027800,28.81502783203125,0.004428769461810589,0.09010255336761475,-0.03649916872382164
1775033714213508400,28.86650830078125,-0.0015271619195118546,0.04428769648075104,-0.02153298258781433
1775033714264989000,28.917989013671875,0.025045456364750862,-0.043982263654470444,0.015577051788568497
1775033714316469500,28.969469482421875,0.007330377586185932,-0.03848448023200035,0.016798781231045723
1775033714367950000,29.0209501953125,0.0032070400193333626,-0.08842267841100693,0.032681263983249664
1775033714419430700,29.0724306640625,0.005955931730568409,-0.06887500733137131,0.025961752980947495
1775033714470911000,29.123910888671876,0.009010255336761475,-0.026572618633508682,0.0154243353754282
1775033714522391600,29.1753916015625,-0.00045814859913662076,-0.025503603741526604,0.012980876490473747
1775033714573872000,29.2268720703125,-0.0010690133785828948,-0.022296564653515816,0.009621120058000088
1775033714625352700,29.278352783203125,0.003665188793092966,-0.01802051067352295,0.005803215317428112
1775033714676833300,29.329833251953126,0.005955931730568409,-0.011300998739898205,0.000305432389723137
1775033714728313900,29.38131396484375,0.008399390615522861,0.0009162971982732415,-0.0030543238390237093
1775033714779794200,29.432794189453126,0.021838415414094925,0,0.0015271619195118546
1775033714831274800,29.484274658203127,0.024434590712189674,-0.001832594396546483,0.002443459117785096
1775033714882755300,29.53575537109375,0.02764163166284561,0.010384701192378998,0.0007635809597559273
1775033714934236000,29.58723583984375,0.01954767294228077,0.022296564653515816,-0.002443459117785096
1775033714985716500,29.638716552734376,0.013286309316754341,-0.001221729558892548,0.0027488914784044027
1775033715037197000,29.690197021484376,0.0102319847792387,-0.005192350596189499,-0.000305432389723137
1775033715088677600,29.741677734375,0.011759147047996521,0.001221729558892548,0.001832594396546483
1775033715140158000,29.793157958984374,0.008093958720564842,0.012980876490473747,-0.004123337101191282
1775033715191638500,29.844638427734374,-0.004428769461810589,0.020922118797898293,-0.019853105768561363
1775033715243119000,29.896119140625,-0.012675444595515728,-0.013286309316754341,-0.017715077847242355
1775033715294599700,29.947599609375,-0.012522728182375431,0.001221729558892548,0.0007635809597559273
1775033715346080300,29.999080322265623,-0.025503603741526604,-0.0009162971982732415,-0.003970621153712273
1775033715397560800,30.050560791015624,-0.04718930274248123,0.006872228812426329,0.013744457624852657
1775033715449041200,30.102041259765624,-0.04673115536570549,0.004581485874950886,0.008857538923621178
1775033715500521700,30.153521728515624,-0.05711585655808449,0.0032070400193333626,0.010079269297420979
1775033715552002300,30.205002197265625,-0.061850059777498245,0.002443459117785096,0.01282816007733345
1775033715603483000,30.25648291015625,-0.05039634555578232,-0.013133592903614044,0.016187917441129684
1775033715654963500,30.30796337890625,-0.037720900028944016,0.001832594396546483,0.00946840364485979
1775033715706444000,30.359444091796874,-0.01511890348047018,-0.008246674202382565,0.010690134018659592
1775033715757924400,30.41092431640625,0.017104214057326317,-0.003665188793092966,0.008552107028663158
1775033715809405000,30.462405029296875,0.03222311660647392,0.0025961752980947495,0.0015271619195118546
1775033715860885500,30.513885498046875,0.04581485688686371,-0.0015271619195118546,-0.005955931730568409
1775033715912366000,30.565365966796875,0.06062832847237587,0.007177661173045635,-0.010690134018659592
1775033715963846700,30.6168466796875,0.06643154472112656,0.006566796451807022,-0.01649334840476513
1775033716015327000,30.668326904296876,0.07483093440532684,0.0256563201546669,-0.016646064817905426
1775033716066807600,30.7198076171875,0.06597339361906052,0.00946840364485979,-0.010995565913617611
1775033716118288100,30.7712880859375,0.06368265300989151,0.001221729558892548,-0.013744457624852657
1775033716169768700,30.822768798828125,0.06062832847237587,0.013439024798572063,-0.011911863461136818
1775033716221249300,30.874249267578126,0.036193739622831345,0.0010690133785828948,-0.006719512399286032
1775033716272729600,30.9257294921875,0.01206457894295454,-0.006108647678047419,-0.009773836471140385
1775033716324210200,30.977210205078126,-0.004123337101191282,-0.014813470654189587,-0.0062613640911877155
1775033716375690800,31.028690673828127,-0.02458730712532997,-0.0009162971982732415,-0.001221729558892548
1775033716427171300,31.08017138671875,-0.032681263983249664,0.006872228812426329,-0.003512472379952669
1775033716478652000,31.13165185546875,-0.03588830679655075,-0.012522728182375431,0.00045814859913662076
1775033716530132200,31.18313232421875,-0.03955349326133728,0.011759147047996521,0.004581485874950886
1775033716581612800,31.23461279296875,-0.03802633285522461,0.020158538594841957,0.004276053514331579
1775033716633093400,31.28609326171875,-0.04459312930703163,0.002290742937475443,0.01282816007733345
1775033716684574000,31.337573974609374,-0.043982263654470444,0.004734201822429895,0.004276053514331579
1775033716736054300,31.38905419921875,-0.047952886670827866,0.003665188793092966,0.007941242307424545
1775033716787534800,31.440534912109374,-0.05024362727999687,0.011911863461136818,0.006719512399286032
1775033716839015400,31.492015380859375,-0.04306596517562866,0.021380268037319183,0.002443459117785096
1775033716890496000,31.54349609375,-0.02306014485657215,0.0027488914784044027,0.006719512399286032
1775033716941976600,31.5949765625,0.001221729558892548,-0.011606430634856224,0.007330377586185932
1775033716993457200,31.64645703125,0.022296564653515816,-0.008704823441803455,0.001832594396546483
1775033717044937500,31.6979375,0.033139415085315704,0.003970621153712273,-0.003512472379952669
1775033717096418000,31.74941796875,0.03497200831770897,-0.007788525894284248,-0.003359756199643016
1775033717147898600,31.800898681640625,0.03909534588456154,-0.009010255336761475,-0.007941242307424545
1775033717199379200,31.852379150390625,0.03451386094093323,-0.015271619893610477,0.00045814859913662076
1775033717250859500,31.903859619140626,0.03711003437638283,-0.006414080038666725,-0.003970621153712273
1775033717302340000,31.955340087890626,0.0386371985077858,-0.006414080038666725,0.0015271619195118546
1775033717353820700,32.006820556640626,0.04001164436340332,0.01954767294228077,-0.008857538923621178
1775033717405301200,32.05830126953125,0.03741546720266342,0.004886918235570192,-0.007024944759905338
1775033717456781600,32.10978149414063,0.043829549103975296,-0.007177661173045635,-0.011453714221715927
1775033717508262100,32.16126220703125,0.04459312930703163,-0.017256930470466614,-0.009773836471140385
1775033717559742700,32.21274267578125,0.03390299528837204,-0.013133592903614044,-0.009621120058000088
1775033717611223300,32.26422338867187,0.02458730712532997,-0.013133592903614044,-0.008552107028663158
1775033717662703600,32.31570361328125,0.010384701192378998,-0.011300998739898205,-0.004276053514331579
1775033717714184200,32.36718408203125,-0.004428769461810589,-0.003665188793092966,0.0013744457392022014
1775033717765664800,32.418664794921874,-0.006566796451807022,-0.011911863461136818,0
1775033717817145300,32.470145263671874,-0.009926552884280682,-0.0154243353754282,0.003512472379952669
1775033717868625700,32.521625732421874,-0.010079269297420979,-0.0054977829568088055,0.000610864779446274
1775033717920106200,32.573106201171875,-0.015729768201708794,0.016646064817905426,-0.0019853105768561363
1775033717971586800,32.6245869140625,-0.01847865991294384,0.007177661173045635,-0.000610864779446274
1775033718023067100,32.676067138671876,-0.02458730712532997,0,-0.003359756199643016
1775033718074547700,32.727547607421876,-0.02916879393160343,0.0032070400193333626,0.001832594396546483
1775033718126028300,32.7790283203125,-0.030543239787220955,0.005192350596189499,0.005650499369949102
1775033718177508900,32.8305087890625,-0.02306014485657215,-0.000610864779446274,0.006108647678047419
1775033718228989200,32.8819892578125,-0.014966187067329884,0.0030543238390237093,0.0025961752980947495
1775033718280469800,32.9334697265625,-0.001679878099821508,0.005803215317428112,0.0038179049734026194
1775033718331950300,32.98495043945312,0.009621120058000088,0.0009162971982732415,0.004886918235570192
1775033718383431000,33.03643090820312,0.01511890348047018,-0.006872228812426329,0.002901607658714056
1775033718434911200,33.0879111328125,0.017867794260382652,-0.002901607658714056,0.0025961752980947495
1775033718486391800,33.13939184570312,0.022754713892936707,0.007635809946805239,-0.000305432389723137
1775033718537872400,33.190872314453124,0.02458730712532997,0.000610864779446274,-0.001832594396546483
1775033718589352700,33.242352783203124,0.020311253145337105,0.001832594396546483,-0.0027488914784044027
1775033718640833300,33.293833251953124,0.011759147047996521,-0.002290742937475443,-0.0027488914784044027
1775033718692313900,33.34531396484375,0.0027488914784044027,-0.0030543238390237093,-0.0013744457392022014
1775033718743794200,33.396794189453125,-0.0013744457392022014,-0.004276053514331579,-0.00045814859913662076
1775033718795274800,33.448274658203125,-0.004123337101191282,-0.007024944759905338,0.0007635809597559273
1775033718846755300,33.49975537109375,-0.005345067009329796,-0.004734201822429895,0.0001527161948615685
1775033718898236000,33.55123583984375,-0.004734201822429895,0.005650499369949102,-0.0013744457392022014
1775033718949716200,33.60271630859375,-0.007635809946805239,-0.0015271619195118546,-0.003665188793092966
1775033719001196800,33.65419677734375,-0.009621120058000088,-0.00045814859913662076,0.000610864779446274
1775033719052677400,33.70567749023437,-0.009621120058000088,-0.004123337101191282,0.003970621153712273
1775033719104157700,33.75715771484375,-0.011911863461136818,-0.005192350596189499,0.001832594396546483
1775033719155638300,33.80863818359375,-0.008857538923621178,0.003359756199643016,0.002290742937475443
1775033719207118800,33.86011889648437,-0.004581485874950886,0.0032070400193333626,0.003359756199643016
1775033719258599400,33.91159936523437,-0.0021380267571657896,-0.007941242307424545,0.0038179049734026194
1775033719310079700,33.963079833984374,0.001832594396546483,0.0062613640911877155,-0.0007635809597559273
1775033719361560300,34.014560302734374,0.0062613640911877155,0.003359756199643016,0.001679878099821508
1775033719413041000,34.066041015625,0.005955931730568409,-0.003665188793092966,0.0030543238390237093
1775033719464521200,34.117521240234375,0.007177661173045635,-0.004276053514331579,0.001221729558892548
1775033719516001800,34.169001708984375,0.006566796451807022,0.002901607658714056,0.0009162971982732415
1775033719567482400,34.220482421875,0.003970621153712273,0.003665188793092966,0.0027488914784044027
1775033719618963000,34.271962890625,0.004428769461810589,-0.006414080038666725,0.002901607658714056
1775033719670443300,34.323443359375,0.005803215317428112,0.003970621153712273,0
1775033719721923800,34.374923828125,0.002443459117785096,-0.000610864779446274,0.003665188793092966
1775033719773404400,34.426404296875,0.0062613640911877155,-0.0019853105768561363,0.0032070400193333626
1775033719824884700,34.477884765625,0.008704823441803455,0.011300998739898205,0.0009162971982732415
1775033719876365300,34.529365234375,0.0021380267571657896,0.004886918235570192,0.002290742937475443
1775033719927846000,34.58084594726562,-0.004734201822429895,-0.0038179049734026194,0.002443459117785096
1775033719979326200,34.632326171875,-0.005039634648710489,0.000305432389723137,-0.0010690133785828948
1775033720030806800,34.68380688476562,-0.003970621153712273,-0.011148282326757908,0.005345067009329796
1775033720082287400,34.73528735351562,0.0007635809597559273,-0.03558287397027016,0.011911863461136818
1775033720133767700,34.786767578125,0.009926552884280682,-0.008857538923621178,0.0015271619195118546
1775033720185248300,34.838248291015624,0.00946840364485979,0.016798781231045723,-0.003359756199643016
1775033720236728800,34.889728759765624,0.004734201822429895,0.03543015569448471,-0.010537417605519295
1775033720288209400,34.94120947265625,-0.005955931730568409,0.0204639695584774,-0.004581485874950886
1775033720339689700,34.992689697265625,-0.008246674202382565,0.0025961752980947495,-0.001221729558892548
1775033720391170300,35.04417041015625,-0.006872228812426329,-0.004581485874950886,0.0021380267571657896
1775033720442651000,35.09565087890625,-0.0001527161948615685,0.009926552884280682,-0.0007635809597559273
1775033720494131200,35.147131103515626,0.002290742937475443,0.0015271619195118546,0.000305432389723137
1775033720545611800,35.19861181640625,-0.0032070400193333626,-0.000305432389723137,-0.0009162971982732415
1775033720597092400,35.25009228515625,-0.0019853105768561363,-0.008552107028663158,0.0013744457392022014
1775033720648572700,35.30157275390625,-0.006108647678047419,-0.005955931730568409,0
1775033720700053200,35.35305322265625,-0.005345067009329796,-0.004886918235570192,0
1775033720751533800,35.40453393554687,-0.0001527161948615685,0.0025961752980947495,-0.002443459117785096
1775033720803014400,35.45601440429687,0.003512472379952669,-0.001832594396546483,-0.0021380267571657896
1775033720854494700,35.50749462890625,0.004428769461810589,-0.009162971749901772,-0.000305432389723137
1775033720905975300,35.558975341796874,0.0019853105768561363,0.001832594396546483,-0.002443459117785096
1775033720957456000,35.610455810546874,-0.0013744457392022014,0.000610864779446274,-0.0015271619195118546
1775033721008936400,35.6619365234375,0.0009162971982732415,-0.0025961752980947495,-0.001832594396546483
1775033721060416800,35.713416748046875,-0.002290742937475443,0.004886918235570192,-0.003359756199643016
1775033721111897300,35.7648974609375,-0.0009162971982732415,-0.0019853105768561363,-0.002901607658714056
1775033721163378000,35.8163779296875,-0.004581485874950886,0.0030543238390237093,-0.007330377586185932
1775033721214858200,35.867858154296876,-0.014508038759231567,0.005192350596189499,-0.013897174037992954
1775033721266338800,35.9193388671875,-0.021227551624178886,0.009926552884280682,-0.017256930470466614
1775033721317819400,35.9708193359375,-0.03558287397027016,-0.010995565913617611,0.002443459117785096
1775033721369300000,36.02230004882812,-0.056657709181308746,-0.007941242307424545,0.004734201822429895
1775033721420780300,36.0737802734375,-0.06200277432799339,-0.006414080038666725,0.011300998739898205
1775033721472260900,36.1252607421875,-0.05696314200758934,-0.009773836471140385,0.013439024798572063
1775033721523741400,36.17674145507812,-0.04413498193025589,-0.0102319847792387,0.008704823441803455
1775033721575221800,36.2282216796875,-0.033139415085315704,0.000305432389723137,0.00946840364485979
1775033721626702300,36.27970239257812,-0.012370011769235134,-0.00045814859913662076,0.007635809946805239
1775033721678183000,36.331182861328124,0.008857538923621178,-0.0030543238390237093,0.009773836471140385
1775033721729663200,36.382663330078124,0.030695954337716103,0.0001527161948615685,0.0032070400193333626
1775033721781143800,36.434143798828124,0.04062250629067421,-0.0015271619195118546,-0.001679878099821508
1775033721832624400,36.485624267578125,0.048563748598098755,0.011148282326757908,0.003665188793092966
1775033721884105000,36.53710498046875,0.06215549260377884,0.012370011769235134,-0.002443459117785096
1775033721935585300,36.588585205078125,0.06123919412493706,0.013439024798572063,-0.008399390615522861
1775033721987065900,36.64006591796875,0.044440411031246185,0.005803215317428112,-0.005803215317428112
1775033722038546400,36.69154638671875,0.027947064489126205,0.006414080038666725,-0.0021380267571657896
1775033722090027000,36.74302709960938,0.012980876490473747,0.00946840364485979,-0.0009162971982732415
1775033722141507300,36.79450732421875,0.0019853105768561363,-0.01908952370285988,0.006719512399286032
1775033722192988000,36.84598779296875,-0.001221729558892548,0.000305432389723137,0.004123337101191282
1775033722244468500,36.89746850585937,-0.0062613640911877155,0.01359174121171236,0.001221729558892548
1775033722295948800,36.94894873046875,-0.01359174121171236,0.006872228812426329,0.0030543238390237093
1775033722347429400,37.00042944335937,-0.010842849500477314,0.01511890348047018,0
1775033722398910000,37.05190991210937,-0.007024944759905338,-0.000610864779446274,-0.0013744457392022014
1775033722450390300,37.10339038085937,-0.007177661173045635,-0.0013744457392022014,-0.0015271619195118546
1775033722501870800,37.154870849609374,0.000610864779446274,0.010079269297420979,-0.0030543238390237093
1775033722553351400,37.206351318359374,0.007024944759905338,-0.001832594396546483,-0.000610864779446274
1775033722604832000,37.25783203125,0.008399390615522861,0.0010690133785828948,-0.0010690133785828948
1775033722656312300,37.309312255859375,0.00946840364485979,0.004276053514331579,-0.005192350596189499
1775033722707793000,37.36079296875,0.005345067009329796,-0.007024944759905338,0.0030543238390237093
1775033722759273500,37.4122734375,0.0009162971982732415,-0.001832594396546483,0.0027488914784044027
1775033722810754000,37.46375415039063,-0.0038179049734026194,-0.0027488914784044027,0.005650499369949102
1775033722862234400,37.515234375,-0.007941242307424545,0.003970621153712273,0.004734201822429895
1775033722913715000,37.56671484375,-0.002901607658714056,0.00045814859913662076,0.0025961752980947495
1775033722965195500,37.61819555664062,-0.002290742937475443,-0.000610864779446274,0.0027488914784044027
1775033723016675800,37.66967578125,-0.005345067009329796,-0.004886918235570192,-0.0001527161948615685
1775033723068156400,37.72115649414062,-0.0013744457392022014,-0.006872228812426329,0.000610864779446274
1775033723119637000,37.77263696289062,0.0030543238390237093,-0.005192350596189499,-0.004276053514331579
1775033723171117300,37.82411743164062,0.004276053514331579,0.000610864779446274,-0.005650499369949102
1775033723222598000,37.87559790039062,0.000610864779446274,-0.005192350596189499,-0.0010690133785828948
1775033723274078500,37.927078369140624,-0.024434590712189674,-0.01588248461484909,0.002443459117785096
1775033723325559000,37.97855908203125,-0.047494735568761826,-0.006108647678047419,0.008857538923621178
1775033723377039400,38.030039306640624,-0.05696314200758934,-0.013439024798572063,0.009926552884280682
1775033723428520000,38.08152001953125,-0.05803215503692627,-0.027488915249705315,0.009010255336761475
1775033723480000500,38.13300048828125,-0.04657844081521034,-0.007635809946805239,0.002443459117785096
1775033723531480800,38.184480712890625,-0.0409279391169548,0.005803215317428112,0.004886918235570192
1775033723582961400,38.23596142578125,-0.0360410213470459,0.011911863461136818,0.001679878099821508
1775033723634442000,38.28744189453125,-0.039858926087617874,-0.020769402384757996,0.005192350596189499
1775033723685922300,38.33892236328125,-0.04153880476951599,-0.0154243353754282,0.007941242307424545
1775033723737403000,38.39040283203125,-0.049632761627435684,0.001832594396546483,-0.001832594396546483
1775033723788883500,38.44188354492187,-0.06017018109560013,0.005955931730568409,0.008246674202382565
1775033723840364000,38.49336401367187,-0.05787943676114082,-0.008552107028663158,0.0030543238390237093
1775033723891844400,38.54484423828125,-0.08689551800489426,-0.017867794260382652,0.010690134018659592
1775033723943325000,38.59632495117187,-0.11377356201410294,0.000305432389723137,0.021685699000954628
1775033723994805500,38.64780541992187,-0.1107192412018776,-0.009162971749901772,0.02260199747979641
1775033724046285800,38.699285888671874,-0.0844520553946495,-0.01695149764418602,0.021227551624178886
1775033724097766400,38.750766357421874,-0.04566214233636856,-0.01954767294228077,0.024740023538470268
1775033724149247000,38.8022470703125,0.012980876490473747,0.006108647678047419,0.014966187067329884
1775033724200727300,38.853727294921875,0.05329795181751251,0.023212861269712448,0.002901607658714056
1775033724252207900,38.905207763671875,0.09850194305181503,0.009162971749901772,-0.005803215317428112
1775033724303688400,38.9566884765625,0.14462223649024963,0.02260199747979641,-0.019700389355421066
1775033724355168800,39.008168701171876,0.17119485139846802,0.05177079141139984,-0.029474224895238876
1775033724406649300,39.0596494140625,0.1870773434638977,0.0513126403093338,-0.02718348242342472
1775033724458130000,39.1111298828125,0.2107483446598053,0.014202605932950974,-0.03191768378019333
1775033724509610200,39.1626103515625,0.19898919761180878,-0.007483093533664942,-0.040317077189683914
1775033724561090800,39.2140908203125,0.17913609743118286,0.008246674202382565,-0.0513126403093338
1775033724612571400,39.2655712890625,0.12782345712184906,0.008552107028663158,-0.0435241162776947
1775033724664051700,39.3170517578125,0.05329795181751251,-0.003665188793092966,-0.02626718580722809
1775033724715532300,39.3685322265625,-0.013897174037992954,-0.025503603741526604,-0.006719512399286032
1775033724767012900,39.42001293945312,-0.06933315098285675,-0.024892739951610565,0.014660755172371864
1775033724818493200,39.4714931640625,-0.11713331937789917,-0.020769402384757996,0.02107483521103859
1775033724869973800,39.522973876953124,-0.15836669504642487,-0.02916879393160343,0.021685699000954628
1775033724921454300,39.574454345703124,-0.24281874299049377,-0.030543239787220955,0.041386090219020844
1775033724972934700,39.6259345703125,-0.2788597643375397,-0.004276053514331579,0.059864748269319534
1775033725024415200,39.677415283203125,-0.2585485279560089,-0.023823726922273636,0.05711585655808449
1775033725075895800,39.728895751953125,-0.21197007596492767,-0.039858926087617874,0.043371398001909256
1775033725127376100,39.780376220703126,-0.1539379209280014,-0.00946840364485979,0.0204639695584774
1775033725178856700,39.831856689453126,-0.09560033679008484,0.025045456364750862,0.021991131827235222
1775033725230337300,39.883337158203126,-0.016798781231045723,0.01588248461484909,0.0009162971982732415
1775033725281817600,39.93481762695313,0.03695731982588768,-0.01206457894295454,-0.001221729558892548
1775033725333298200,39.98629809570313,0.07040216773748398,-0.000305432389723137,-0.010384701192378998
1775033725384778500,40.03777856445313,0.08811724185943604,0.009010255336761475,-0.010384701192378998
1775033725436259000,40.08925903320313,0.08750637620687485,0.025961752980947495,-0.014966187067329884
1775033725487739600,40.14073974609375,0.07483093440532684,0.008093958720564842,-0.007024944759905338
1775033725539220000,40.19221997070313,0.05803215503692627,-0.005650499369949102,-0.002290742937475443
1775033725590700500,40.24370043945312,0.044898562133312225,-0.005039634648710489,-0.005345067009329796
1775033725642181000,40.29518115234375,0.020922118797898293,0.000305432389723137,-0.0001527161948615685
1775033725693661400,40.34666137695312,0.0013744457392022014,-0.011300998739898205,0.004886918235570192
1775033725745142000,40.39814208984375,-0.008857538923621178,-0.001832594396546483,0.0019853105768561363
1775033725796622300,40.44962231445312,-0.008704823441803455,-0.000305432389723137,0.001832594396546483
1775033725848103000,40.50110302734375,-0.016187917441129684,-0.014813470654189587,0.006719512399286032
1775033725899583200,40.55258325195312,-0.018173227086663246,-0.0054977829568088055,0.0009162971982732415
1775033725951063800,40.604063720703124,-0.02214384824037552,-0.0030543238390237093,0.003970621153712273
1775033726002544400,40.65554443359375,-0.022449281066656113,0.0001527161948615685,0.005803215317428112
1775033726054024700,40.707024658203125,-0.016035201027989388,0.000610864779446274,0.004276053514331579
1775033726105505300,40.75850537109375,-0.01206457894295454,0.0013744457392022014,0.0009162971982732415
1775033726156985900,40.80998583984375,-0.010690134018659592,0.010995565913617611,0.0007635809597559273
1775033726208466200,40.861466064453126,-0.005039634648710489,-0.018631376326084137,0.013439024798572063
1775033726259946800,40.91294677734375,0.003512472379952669,-0.03145953640341759,0.014049889519810677
1775033726311427300,40.96442724609375,0.010842849500477314,-0.051159925758838654,0.025045456364750862
1775033726362907600,41.01590771484375,0.017715077847242355,0.017715077847242355,-0.01954767294228077
