time,seconds_elapsed,z,y,x
1775033685426666500,0.07966650390625,-0.009162971749901772,0.018325943499803543,-0.004276053514331579
1775033685478147000,0.13114697265625,0.002443459117785096,0.002443459117785096,0.010995565913617611
1775033685572528400,0.2255283203125,-0.01282816007733345,-0.006719512399286032,-0.0030543238390237093
1775033685624009000,0.277009033203125,-0.0054977829568088055,-0.014660755172371864,-0.006719512399286032
1775033685675489500,0.328489501953125,-0.02260199747979641,-0.015271619893610477,-0.01649334840476513
1775033685726970400,0.379970458984375,-0.036651886999607086,0.023212861269712448,-0.003665188793092966
1775033685778451000,0.431450927734375,-0.027488915249705315,-0.07147117704153061,0.002443459117785096
1775033685829931500,0.482931640625,0.023823726922273636,-0.010384701192378998,-0.009162971749901772
1775033685881412000,0.534412109375,0.01649334840476513,0.050090912729501724,-0.006719512399286032
1775033685932893000,0.585892822265625,0.006719512399286032,0.014049889519810677,-0.008552107028663158
1775033685984373500,0.63737353515625,-0.027488915249705315,0.006108647678047419,-0.020769402384757996
1775033686035854000,0.68885400390625,-0.03787361457943916,0.06963858753442764,0.004886918235570192
1775033686087334700,0.740334716796875,-0.04886918142437935,0.049480047076940536,0.01282816007733345
1775033686138815200,0.791815185546875,0.0030543238390237093,-0.03909534588456154,0.003665188793092966
1775033686190296000,0.843296142578125,0.01282816007733345,0.026878049597144127,-0.001832594396546483
1775033686241776600,0.894776611328125,-0.002443459117785096,-0.012217295356094837,0.001832594396546483
1775033686293257200,0.94625732421875,-0.001221729558892548,-0.0616973415017128,-0.006719512399286032
1775033686344737800,0.99773779296875,0.01954767294228077,-0.030543239787220955,0
1775033686396218600,1.049218505859375,0.020158538594841957,0.012217295356094837,0.003665188793092966
1775033686447699200,1.10069921875,0.003665188793092966,-0.013439024798572063,0.013439024798572063
1775033686499179800,1.1521796875,-0.025045456364750862,-0.034208428114652634,0.001221729558892548
1775033686550660400,1.203660400390625,-0.006719512399286032,-0.03176496922969818,0.01282816007733345
1775033686602141000,1.255140869140625,0.009773836471140385,-0.031154103577136993,0.011606430634856224
1775033686653621800,1.306621826171875,0.01282816007733345,-0.10079269111156464,0.017104214057326317
1775033686705102300,1.358102294921875,0.0256563201546669,-0.08368847519159317,0.014660755172371864
1775033686756583000,1.4095830078125,0.007941242307424545,-0.024434590712189674,-0.010995565913617611
1775033686808063500,1.4610634765625,-0.008552107028663158,-0.030543239787220955,-0.000610864779446274
1775033686859544300,1.51254443359375,-0.011606430634856224,-0.08491020649671555,0.014660755172371864
1775033686911025000,1.56402490234375,0.01649334840476513,-0.07391463965177536,0.003665188793092966
1775033686962505500,1.61550537109375,0.04276053607463837,-0.07269290834665298,-0.003665188793092966
1775033687013986000,1.666986083984375,0.014049889519810677,-0.015271619893610477,-0.017104214057326317
1775033687065466600,1.718466552734375,0.020158538594841957,-0.033597562462091446,0.004886918235570192
1775033687116947500,1.769947509765625,-0.006719512399286032,-0.013439024798572063,-0.0030543238390237093
1775033687168428000,1.821427978515625,-0.003665188793092966,-0.029932374134659767,-0.001832594396546483
1775033687219908600,1.87290869140625,0.056199558079242706,-0.05925388261675835,-0.001221729558892548
1775033687271389200,1.92438916015625,0.12400554865598679,-0.1233946830034256,0.018325943499803543
1775033687322869800,1.975869873046875,0.11728604137897491,-0.04214967042207718,-0.004276053514331579
1775033687374350300,2.027350341796875,0.16065743565559387,-0.06780599057674408,0
1775033687425831200,2.0788310546875,0.17165300250053406,-0.07452550530433655,-0.0030543238390237093
1775033687477311700,2.130311767578125,0.04825831577181816,-0.006108647678047419,-0.0030543238390237093
1775033687528792300,2.181792236328125,-0.06047561392188072,0.05253437161445618,-0.007330377586185932
1775033687580273000,2.23327294921875,-0.1337793916463852,0.16187916696071625,0.004886918235570192
1775033687631753500,2.28475341796875,-0.19242240488529205,0.30543237924575806,-0.01649334840476513
1775033687683234000,2.336234130859375,-0.037262752652168274,-0.07269290834665298,0.023823726922273636
1775033687734715000,2.38771484375,-0.04276053607463837,-0.05864302068948746,0.020158538594841957
1775033687786195500,2.439195556640625,-0.053756099194288254,-0.02260199747979641,0.027488915249705315
1775033687837676000,2.490676025390625,-0.07452550530433655,-0.025045456364750862,0.031154103577136993
1775033687889156600,2.542156494140625,-0.11972949653863907,-0.036651886999607086,0.04276053607463837
1775033687940637200,2.59363720703125,-0.17837251722812653,-0.008552107028663158,0.050090912729501724
1775033687992118000,2.645117919921875,-0.1484401375055313,-0.000610864779446274,0.05925388261675835
1775033688043598600,2.6965986328125,-0.13500112295150757,-0.02932151034474373,0.06352993845939636
1775033688095079200,2.7480791015625,-0.1288924664258957,-0.053145237267017365,0.05192350596189499
1775033688146559700,2.799559814453125,-0.0922405794262886,0.027488915249705315,0.020769402384757996
1775033688198040300,2.851040283203125,-0.05497783049941063,0.02260199747979641,0.01282816007733345
1775033688249521000,2.90252099609375,0.007941242307424545,0.0360410213470459,0.0054977829568088055
1775033688301001500,2.95400146484375,0.043371398001909256,0.01954767294228077,-0.013439024798572063
1775033688352482300,3.005482421875,0.09346231073141098,-0.02260199747979641,-0.036651886999607086
1775033688403963000,3.056962890625,0.10445787757635117,0.01282816007733345,-0.040317077189683914
1775033688455443500,3.108443359375,0.08491020649671555,-0.043371398001909256,-0.025045456364750862
1775033688506924000,3.159924072265625,0.1185077652335167,-0.004276053514331579,-0.0409279391169548
1775033688558404600,3.211404541015625,-0.04459312930703163,-0.14660754799842834,-0.031154103577136993
1775033688609885200,3.26288525390625,-0.14172062277793884,-0.07757982611656189,0.025045456364750862
1775033688704266200,3.357266357421875,-0.3640754222869873,-0.007941242307424545,0.06047561392188072
1775033688755747000,3.4087470703125,-0.4422661066055298,-0.1380554437637329,0.07269290834665298
1775033688807227600,3.4602275390625,-0.2828303873538971,-0.14110976457595825,0.036651886999607086
1775033688858708200,3.511708251953125,-0.17287473380565643,-0.16676609218120575,0.0360410213470459
1775033688910188800,3.563188720703125,-0.14782927930355072,-0.12278381735086441,0.009773836471140385
1775033688961669400,3.61466943359375,-0.09651663154363632,0.015271619893610477,-0.010995565913617611
1775033689013150000,3.66614990234375,-0.006719512399286032,-0.20952661335468292,0.014660755172371864
1775033689064630500,3.717630615234375,0.03909534588456154,-0.07513637095689774,-0.008552107028663158
1775033689116111400,3.769111328125,0.040317077189683914,-0.013439024798572063,-0.007330377586185932
1775033689167592000,3.820592041015625,0.02626718580722809,-0.08124501258134842,0.01954767294228077
1775033689219072500,3.872072509765625,0.03298669680953026,-0.0873536616563797,-0.002443459117785096
1775033689270553000,3.923552978515625,0.034208428114652634,-0.01649334840476513,-0.020769402384757996
1775033689322033700,3.97503369140625,0.003665188793092966,0.024434590712189674,0.000610864779446274
1775033689373514200,4.02651416015625,0.006719512399286032,-0.021380268037319183,-0.010995565913617611
1775033689424994800,4.077994873046875,-0.015271619893610477,-0.04153880476951599,0.0030543238390237093
1775033689476475400,4.129475341796875,-0.036651886999607086,-0.0054977829568088055,0.001221729558892548
1775033689527956000,4.1809560546875,-0.05803215503692627,-0.001221729558892548,0.003665188793092966
1775033689579436800,4.232436767578125,-0.09346231073141098,-0.010384701192378998,0.023823726922273636
1775033689673817900,4.32681787109375,-0.14538581669330597,-0.009162971749901772,0.020769402384757996
1775033689725298400,4.37829833984375,-0.17837251722812653,-0.023212861269712448,0.033597562462091446
1775033689776779000,4.429779052734375,-0.12522727251052856,-0.012217295356094837,0.031154103577136993
1775033689828259600,4.481259521484375,-0.07330377399921417,-0.009162971749901772,0.006719512399286032
1775033689879740400,4.532740478515625,0.006719512399286032,-0.027488915249705315,-0.0054977829568088055
1775033689931221000,4.584220947265625,0.06597339361906052,0.001221729558892548,-0.017715077847242355
1775033689982701600,4.63570166015625,0.12095122784376144,0.023823726922273636,-0.03848448023200035
1775033690034182100,4.68718212890625,0.15577052533626556,0.01954767294228077,-0.03543015569448471
1775033690085662700,4.738662841796875,0.18203771114349365,0.001832594396546483,-0.050090912729501724
1775033690137143300,4.790143310546875,0.1698204129934311,-0.01282816007733345,-0.05925388261675835
1775033690188624000,4.841623779296875,0.10690133273601532,0.001832594396546483,-0.026878049597144127
1775033690240104400,4.8931044921875,0.0665842592716217,0.010995565913617611,-0.027488915249705315
1775033690291585000,4.9445849609375,0.02871064469218254,-0.021380268037319183,-0.01954767294228077
1775033690343065900,4.99606591796875,-0.004276053514331579,-0.03787361457943916,-0.003665188793092966
1775033690394546400,5.04754638671875,-0.031154103577136993,-0.030543239787220955,-0.001221729558892548
1775033690446027000,5.099027099609375,-0.037262752652168274,-0.01649334840476513,-0.001221729558892548
1775033690497507600,5.150507568359375,-0.036651886999607086,-0.029932374134659767,0.006108647678047419
1775033690548988200,5.20198828125,-0.04276053607463837,-0.0054977829568088055,0
1775033690600468700,5.25346875,-0.0409279391169548,-0.020158538594841957,0.01649334840476513
1775033690651949300,5.30494921875,-0.05803215503692627,0.003665188793092966,0.008552107028663158
1775033690703430100,5.35643017578125,-0.08674279600381851,-0.011606430634856224,0.013439024798572063
1775033690754910700,5.40791064453125,-0.08063415437936783,-0.007941242307424545,0.011606430634856224
1775033690806391300,5.459391357421875,-0.09957095980644226,-0.018325943499803543,0.01649334840476513
1775033690857872000,5.510871826171875,-0.050090912729501724,-0.004886918235570192,0.006719512399286032
1775033690909352400,5.5623525390625,-0.020769402384757996,-0.018325943499803543,0.008552107028663158
1775033690960833000,5.6138330078125,-0.003665188793092966,0,0.0054977829568088055
1775033691012313600,5.665313720703125,0.010384701192378998,0.018325943499803543,-0.001221729558892548
1775033691063794400,5.71679443359375,0.0054977829568088055,0.03848448023200035,0.002443459117785096
1775033691115275000,5.76827490234375,0.02932151034474373,0.034208428114652634,-0.0030543238390237093
1775033691166755600,5.819755615234375,0.034208428114652634,0.021991131827235222,-0.0054977829568088055
1775033691218236200,5.871236083984375,0.037262752652168274,-0.007941242307424545,-0.015271619893610477
1775033691312617200,5.9656171875,0.046425722539424896,0.026878049597144127,-0.020158538594841957
1775033691364097800,6.017097900390625,0.05436696484684944,0.018325943499803543,-0.03237583488225937
1775033691415578400,6.068578369140625,0.046425722539424896,0.021380268037319183,-0.01893680728971958
1775033691467059200,6.12005908203125,0.015271619893610477,0.000610864779446274,-0.01282816007733345
1775033691518539800,6.171539794921875,0.010384701192378998,0.01893680728971958,-0.01282816007733345
1775033691612920800,6.2659208984375,-0.001221729558892548,0.017715077847242355,-0.004276053514331579
1775033691664401400,6.3174013671875,-0.004276053514331579,0.01954767294228077,-0.001221729558892548
1775033691715882000,6.368882080078125,-0.03481929376721382,-0.000610864779446274,0.007330377586185932
1775033691767362600,6.420362548828125,-0.036651886999607086,0.02626718580722809,0.014660755172371864
1775033691818843400,6.471843505859375,-0.05192350596189499,0.025045456364750862,0.014049889519810677
1775033691870324000,6.523323974609375,-0.05192350596189499,0.011606430634856224,0.012217295356094837
1775033691921804500,6.574804443359375,-0.0409279391169548,-0.003665188793092966,0.015271619893610477
1775033691973285000,6.62628515625,-0.010384701192378998,-0.004276053514331579,0.003665188793092966
1775033692024765700,6.677765625,0.030543239787220955,0.01282816007733345,-0.020158538594841957
1775033692076246300,6.729246337890625,0.0665842592716217,-0.001832594396546483,-0.014660755172371864
1775033692127726800,6.780726806640625,0.09957095980644226,0.014660755172371864,-0.029932374134659767
1775033692179207400,6.83220751953125,0.1185077652335167,0.000610864779446274,-0.03481929376721382
1775033692230688300,6.883688232421875,0.0873536616563797,-0.01893680728971958,-0.021991131827235222
1775033692282168800,6.9351689453125,0.036651886999607086,0.004886918235570192,-0.023212861269712448
1775033692333649400,6.9866494140625,-0.007941242307424545,-0.02260199747979641,-0.0054977829568088055
1775033692385130000,7.0381298828125,-0.046425722539424896,-0.007330377586185932,0.001832594396546483
1775033692436610600,7.089610595703125,-0.1026252806186676,-0.021380268037319183,0.014660755172371864
1775033692488091100,7.141091064453125,-0.19914191961288452,-0.012217295356094837,0.03237583488225937
1775033692539571700,7.19257177734375,-0.23273947834968567,-0.01649334840476513,0.04825831577181816
1775033692591052500,7.244052490234375,-0.24251331388950348,-0.017104214057326317,0.050090912729501724
1775033692642533000,7.295533203125,-0.21135921776294708,-0.03237583488225937,0.046425722539424896
1775033692694013700,7.347013671875,-0.17226386070251465,-0.04520399495959282,0.043982263654470444
1775033692745494300,7.398494384765625,-0.17531819641590118,-0.015271619893610477,0.030543239787220955
1775033692796974800,7.449974853515625,-0.16554436087608337,-0.007330377586185932,0.03909534588456154
1775033692848455400,7.501455322265625,-0.1026252806186676,0.009773836471140385,0.01649334840476513
1775033692899936300,7.552936279296875,-0.06475166976451874,-0.013439024798572063,0.020769402384757996
1775033692951416800,7.604416748046875,-0.023823726922273636,-0.008552107028663158,0.008552107028663158
1775033693002897400,7.6558974609375,0.01649334840476513,-0.006719512399286032,-0.008552107028663158
1775033693054378000,7.7073779296875,0.04581485688686371,0.015271619893610477,-0.014660755172371864
1775033693105858600,7.758858642578125,0.053756099194288254,0,-0.020158538594841957
1775033693157339100,7.810339111328125,0.08368847519159317,0.001832594396546483,-0.0256563201546669
1775033693208819700,7.86181982421875,0.08063415437936783,-0.015271619893610477,-0.03237583488225937
1775033693260300300,7.91330029296875,0.05803215503692627,-0.008552107028663158,-0.021380268037319183
1775033693311781000,7.964781005859375,0.04459312930703163,0.004276053514331579,-0.01893680728971958
1775033693363261700,8.01626171875,0.03543015569448471,-0.015271619893610477,-0.008552107028663158
1775033693414742300,8.0677421875,0.037262752652168274,-0.014049889519810677,0
1775033693466222800,8.119222900390625,0.04886918142437935,-0.000610864779446274,0.003665188793092966
1775033693517703400,8.170703369140625,0.050090912729501724,0.01282816007733345,-0.003665188793092966
1775033693569184000,8.22218408203125,0.04825831577181816,0.03237583488225937,0.006719512399286032
1775033693620664800,8.273664794921874,0.020769402384757996,-0.004886918235570192,0.004886918235570192
1775033693672145400,8.3251455078125,0.014660755172371864,0.001832594396546483,0.007941242307424545
1775033693723626000,8.3766259765625,-0.003665188793092966,0.001221729558892548,-0.009773836471140385
1775033693775106600,8.4281064453125,0.03848448023200035,0.001832594396546483,0.006108647678047419
1775033693826587100,8.479587158203126,0.020769402384757996,-0.001221729558892548,-0.020769402384757996
1775033693878067700,8.531067626953124,0.011606430634856224,-0.030543239787220955,-0.000610864779446274
1775033693929548300,8.58254833984375,-0.04459312930703163,-0.05253437161445618,-0.040317077189683914
1775033693981029000,8.634029052734375,-0.001221729558892548,-0.036651886999607086,-0.012217295356094837
1775033694032509700,8.685509765625,-0.002443459117785096,-0.07147117704153061,0.025045456364750862
1775033694083990300,8.736990234375,-0.053756099194288254,-0.046425722539424896,0.006719512399286032
1775033694135470800,8.788470947265624,-0.0665842592716217,-0.03543015569448471,0.009773836471140385
1775033694186951400,8.839951416015625,-0.011606430634856224,-0.023823726922273636,0.020769402384757996
1775033694238432000,8.891431884765625,0.10995566099882126,-0.07819069176912308,0.006719512399286032
1775033694289912600,8.94291259765625,0.15210533142089844,-0.07330377399921417,-0.001221729558892548
1775033694341393200,8.99439306640625,0.1026252806186676,-0.0513126403093338,0.021380268037319183
1775033694392873700,9.045873779296874,-0.006719512399286032,0.007941242307424545,0.007330377586185932
1775033694444354600,9.0973544921875,0.2779434621334076,-0.04825831577181816,-0.024434590712189674
1775033694495835100,9.148835205078125,0.23945899307727814,-0.08552107214927673,-0.007330377586185932
1775033694547315700,9.200315673828126,0.0256563201546669,0.07086031138896942,0.009773836471140385
1775033694598796300,9.25179638671875,0.07024945318698883,0.11423171311616898,0.009773836471140385
1775033694650276900,9.30327685546875,0.026878049597144127,0.0977383628487587,-0.043982263654470444
1775033694701757400,9.35475732421875,0.05436696484684944,0.014049889519810677,-0.023823726922273636
1775033694753238000,9.406238037109375,0.02260199747979641,0.024434590712189674,-0.023212861269712448
1775033694804718600,9.457718505859376,-0.043371398001909256,-0.021991131827235222,-0.001832594396546483
1775033694856199200,9.50919921875,-0.12217295914888382,-0.0824667438864708,0.02871064469218254
1775033694907680000,9.560679931640625,-0.12400554865598679,-0.053756099194288254,0.02626718580722809
1775033694959160600,9.61216064453125,-0.1288924664258957,0.001221729558892548,0.026878049597144127
1775033695010641200,9.66364111328125,-0.13194678723812103,0.04276053607463837,0.020769402384757996
1775033695062121700,9.715121826171876,-0.11423171311616898,-0.009162971749901772,0.024434590712189674
1775033695113602300,9.766602294921874,-0.07024945318698883,-0.01649334840476513,0.009162971749901772
1775033695165083000,9.818082763671875,-0.027488915249705315,0.017104214057326317,-0.002443459117785096
1775033695216563500,9.8695634765625,0,0.021380268037319183,-0.001221729558892548
1775033695268044000,9.9210439453125,0.03848448023200035,0.01954767294228077,-0.018325943499803543
1775033695319524600,9.972524658203126,0.11423171311616898,-0.01282816007733345,-0.026878049597144127
1775033695371005200,10.024005126953124,0.1539379209280014,0.001832594396546483,-0.036651886999607086
1775033695422485800,10.07548583984375,0.1637117564678192,-0.006108647678047419,-0.04214967042207718
1775033695473966300,10.12696630859375,0.18753549456596375,0.020769402384757996,-0.049480047076940536
1775033695525447200,10.178447265625,0.21930044889450073,0.006108647678047419,-0.04764745384454727
1775033695576927700,10.229927734375,0.2162461280822754,0.017104214057326317,-0.04153880476951599
1775033695628408300,10.281408203125,0.18875721096992493,0.01588248461484909,-0.03909534588456154
1775033695679889000,10.332888916015625,0.14599667489528656,-0.0030543238390237093,-0.033597562462091446
1775033695731369500,10.384369384765625,0.08552107214927673,-0.009773836471140385,-0.023212861269712448
1775033695782850000,10.43585009765625,0.031154103577136993,-0.026878049597144127,-0.011606430634856224
1775033695834330600,10.48733056640625,-0.021380268037319183,-0.018325943499803543,-0.003665188793092966
1775033695885811200,10.538811279296874,-0.06963858753442764,-0.020769402384757996,0.014049889519810677
1775033695937291800,10.590291748046875,-0.11911863088607788,-0.001221729558892548,0.02260199747979641
1775033695988772400,10.6417724609375,-0.17715078592300415,-0.0030543238390237093,0.0256563201546669
1775033696040253000,10.6932529296875,-0.20402882993221283,-0.01649334840476513,0.04153880476951599
1775033696091733500,10.7447333984375,-0.21502439677715302,-0.014660755172371864,0.039706211537122726
1775033696143214000,10.796214111328124,-0.22357651591300964,-0.001221729558892548,0.04214967042207718
1775033696194694700,10.847694580078125,-0.20952661335468292,-0.028099779039621353,0.03176496922969818
1775033696246175200,10.89917529296875,-0.1649334877729416,-0.02260199747979641,0.0256563201546669
1775033696297655800,10.95065576171875,-0.13011419773101807,0.020158538594841957,0.020769402384757996
1775033696349136400,11.002136474609374,-0.0824667438864708,0.01588248461484909,0.010384701192378998
1775033696400617000,11.053616943359375,0.007941242307424545,-0.001832594396546483,-0.0054977829568088055
1775033696452097500,11.10509765625,0.09529490768909454,0.021380268037319183,-0.047036588191986084
1775033696503578400,11.156578369140625,0.12705987691879272,-0.011606430634856224,-0.040317077189683914
1775033696555059000,11.208058837890626,0.1130099818110466,0.003665188793092966,-0.023212861269712448
1775033696606539500,11.25953955078125,0.10323614627122879,-0.010995565913617611,-0.02932151034474373
1775033696658020000,11.31102001953125,0.0824667438864708,-0.010995565913617611,-0.02932151034474373
1775033696709500700,11.362500732421875,0.034208428114652634,-0.036651886999607086,-0.010384701192378998
1775033696760981200,11.413981201171875,-0.01649334840476513,-0.014049889519810677,-0.009773836471140385
1775033696812461800,11.4654619140625,-0.04764745384454727,-0.017104214057326317,0.001221729558892548
1775033696863942400,11.5169423828125,-0.0824667438864708,-0.02260199747979641,0.008552107028663158
1775033696915423000,11.568423095703125,-0.10690133273601532,-0.03237583488225937,0.015271619893610477
1775033696966903600,11.619903564453125,-0.11117739230394363,-0.029932374134659767,0.013439024798572063
1775033697018384100,11.671384033203125,-0.10934479534626007,-0.014049889519810677,0.013439024798572063
1775033697112765200,11.76576513671875,-0.1026252806186676,-0.017715077847242355,0.007330377586185932
1775033697164245800,11.817245849609375,-0.16310089826583862,-0.2932150959968567,0.06536252796649933
1775033697215726300,11.868726318359375,-0.10018182545900345,0.08063415437936783,-0.007941242307424545
1775033697267207000,11.92020703125,-0.07574722915887833,-0.014049889519810677,0.036651886999607086
1775033697318687500,11.9716875,-0.0665842592716217,0.02260199747979641,0.004276053514331579
1775033697370168000,12.02316796875,-0.018325943499803543,0.017715077847242355,-0.004886918235570192
1775033697421648600,12.074648681640625,0,-0.007330377586185932,0.001832594396546483
1775033697473129200,12.126129150390625,0.027488915249705315,-0.000610864779446274,-0.007330377586185932
1775033697524609800,12.17760986328125,0.023212861269712448,-0.018325943499803543,0.023823726922273636
1775033697576090400,12.22909033203125,0.015271619893610477,-0.014660755172371864,0.03237583488225937
1775033697627571000,12.280571044921874,0.014049889519810677,0.006108647678047419,0.013439024798572063
1775033697679051500,12.332051513671875,0.023212861269712448,-0.020158538594841957,0.007330377586185932
1775033697730532000,12.383531982421875,0.03909534588456154,-0.011606430634856224,-0.000610864779446274
1775033697782013000,12.435012939453125,0.06719512492418289,-0.001832594396546483,-0.007941242307424545
1775033697833493200,12.4864931640625,0.06536252796649933,0.021991131827235222,0
1775033697884973800,12.537973876953124,0.04153880476951599,-0.03176496922969818,0.0054977829568088055
1775033697936454400,12.589454345703125,0.03237583488225937,-0.017104214057326317,0.001832594396546483
1775033697987935200,12.640935302734375,0.013439024798572063,-0.009162971749901772,0.023823726922273636
1775033698039415800,12.692415771484375,-0.0054977829568088055,-0.014660755172371864,0.015271619893610477
1775033698090896400,12.743896484375,-0.03909534588456154,-0.014049889519810677,0.020158538594841957
1775033698142377000,12.795376953125,-0.04581485688686371,0.01954767294228077,0.014049889519810677
1775033698193857500,12.846857421875,0.0030543238390237093,0.01282816007733345,-0.026878049597144127
1775033698245338000,12.898338134765625,-0.0360410213470459,0.036651886999607086,-0.053145237267017365
1775033698296818700,12.949818603515626,-0.03543015569448471,0.07635809481143951,-0.06597339361906052
1775033698348299300,13.00129931640625,-0.021380268037319183,0.06536252796649933,-0.05192350596189499
1775033698399779800,13.05277978515625,-0.01649334840476513,0.01588248461484909,-0.017715077847242355
1775033698451260400,13.104260498046875,-0.012217295356094837,-0.007941242307424545,-0.020158538594841957
1775033698502741000,13.155740966796875,-0.009162971749901772,0.006108647678047419,-0.004276053514331579
1775033698554221600,13.2072216796875,0.030543239787220955,0.004886918235570192,-0.006108647678047419
1775033698605702100,13.2587021484375,0.0616973415017128,-0.012217295356094837,-0.008552107028663158
1775033698657182700,13.3101826171875,0.10506874322891235,-0.01649334840476513,-0.015271619893610477
1775033698708663300,13.361663330078125,0.14233149588108063,-0.0054977829568088055,-0.021380268037319183
1775033698760144000,13.413143798828125,0.1637117564678192,-0.01649334840476513,-0.026878049597144127
1775033698811624400,13.46462451171875,0.16310089826583862,-0.000610864779446274,-0.03848448023200035
1775033698863105000,13.51610498046875,0.11362084746360779,-0.013439024798572063,-0.023212861269712448
1775033698914585600,13.567585693359375,0.053145237267017365,0.001221729558892548,-0.027488915249705315
1775033698966066200,13.619066162109375,0.011606430634856224,-0.023212861269712448,-0.010995565913617611
1775033699017547000,13.670547119140625,-0.040317077189683914,-0.010995565913617611,-0.004276053514331579
1775033699069027600,13.722027587890626,-0.0824667438864708,-0.047036588191986084,-0.003665188793092966
1775033699120508200,13.773508056640624,-0.15821397304534912,-0.029932374134659767,0.01588248461484909
1775033699171988700,13.82498876953125,-0.19303326308727264,-0.004886918235570192,0.023212861269712448
1775033699223469300,13.87646923828125,-0.17287473380565643,-0.020158538594841957,0.02626718580722809
1775033699274950000,13.927949951171875,-0.13683371245861053,-0.03298669680953026,0.023212861269712448
1775033699326430200,13.97943017578125,-0.0818558782339096,-0.034208428114652634,0.01649334840476513
1775033699377910800,14.030910888671874,-0.0256563201546669,0.02932151034474373,0.001221729558892548
1775033699429391400,14.082391357421875,0.01893680728971958,0.02260199747979641,-0.002443459117785096
1775033699480872000,14.133871826171875,0.06780599057674408,0.004886918235570192,-0.01588248461484909
1775033699532352500,14.1853525390625,0.0977383628487587,-0.01893680728971958,-0.014049889519810677
1775033699583833000,14.2368330078125,0.11545344442129135,0.007330377586185932,-0.018325943499803543
1775033699635314000,14.28831396484375,0.13622283935546875,0.000610864779446274,-0.026878049597144127
1775033699686794500,14.33979443359375,0.13927717506885529,0.01893680728971958,-0.026878049597144127
1775033699738275000,14.391275146484375,0.1441640853881836,-0.009162971749901772,-0.03481929376721382
1775033699789755600,14.442755615234375,0.12156209349632263,0.010995565913617611,-0.023212861269712448
1775033699841236200,14.494236328125,0.10567960888147354,-0.01893680728971958,-0.03176496922969818
1775033699892716800,14.545716796875,0.07635809481143951,-0.02260199747979641,-0.023212861269712448
1775033699944197400,14.597197265625,0.05070177838206291,-0.023823726922273636,-0.014660755172371864
1775033699995678000,14.648677978515625,0.01954767294228077,-0.0054977829568088055,-0.009162971749901772
1775033700047158500,14.700158447265625,-0.013439024798572063,-0.020769402384757996,-0.010384701192378998
1775033700098639000,14.75163916015625,-0.05436696484684944,-0.028099779039621353,0
1775033700150119700,14.80311962890625,-0.0873536616563797,-0.023212861269712448,0.008552107028663158
1775033700201600300,14.854600341796875,-0.11545344442129135,-0.000610864779446274,0.01282816007733345
1775033700253080800,14.906080810546875,-0.1380554437637329,-0.010384701192378998,0.011606430634856224
1775033700304561400,14.9575615234375,-0.1288924664258957,0.001221729558892548,0.017715077847242355
1775033700356042000,15.0090419921875,-0.12522727251052856,-0.002443459117785096,0.024434590712189674
1775033700407522600,15.0605224609375,-0.10018182545900345,-0.0030543238390237093,0.010995565913617611
1775033700459003100,15.112003173828125,-0.08063415437936783,0.001221729558892548,0.014049889519810677
1775033700510483700,15.163483642578125,-0.059864748269319534,0.01893680728971958,0.010384701192378998
1775033700561964300,15.21496435546875,-0.02626718580722809,0.01282816007733345,0.003665188793092966
1775033700613445000,15.266445068359374,0.015271619893610477,-0.004276053514331579,0.001832594396546483
1775033700664925400,15.317925537109375,0.049480047076940536,-0.009162971749901772,-0.001221729558892548
1775033700716406300,15.36940625,0.08368847519159317,0.034208428114652634,-0.009162971749901772
1775033700767886800,15.420886962890625,0.11606431007385254,0.008552107028663158,-0.01649334840476513
1775033700819367400,15.472367431640626,0.13072505593299866,0.008552107028663158,-0.021991131827235222
1775033700870848000,15.523847900390624,0.1337793916463852,0.01649334840476513,-0.0256563201546669
1775033700922328600,15.57532861328125,0.12583814561367035,0.008552107028663158,-0.023823726922273636
1775033700973809200,15.62680908203125,0.10384701192378998,0.001221729558892548,-0.0256563201546669
1775033701025289700,15.678289794921875,0.09957095980644226,-0.007330377586185932,-0.023823726922273636
1775033701076770300,15.729770263671876,0.08368847519159317,-0.012217295356094837,-0.017104214057326317
1775033701128251000,15.7812509765625,0.05253437161445618,-0.0054977829568088055,-0.01649334840476513
1775033701179731500,15.8327314453125,0.03909534588456154,-0.01649334840476513,-0.017104214057326317
1775033701231212000,15.8842119140625,0.020158538594841957,-0.01588248461484909,-0.006108647678047419
1775033701325593000,15.978593017578126,-0.06902772188186646,-0.01588248461484909,0.007330377586185932
1775033701377073700,16.03007373046875,-0.0824667438864708,-0.01893680728971958,0.008552107028663158
1775033701428554200,16.08155419921875,-0.09834922850131989,-0.009773836471140385,0.013439024798572063
1775033701480034800,16.133034912109373,-0.10751219838857651,-0.023823726922273636,0.010995565913617611
1775033701531515400,16.184515380859374,-0.13194678723812103,-0.003665188793092966,-0.05742128938436508
1775033701582996000,16.235995849609374,-0.25045454502105713,0.013439024798572063,0.01893680728971958
1775033701634476500,16.2874765625,-0.29993459582328796,0.003665188793092966,0.04520399495959282
1775033701685957000,16.33895703125,-0.28954991698265076,-0.06414080411195755,0.02932151034474373
1775033701737437700,16.390437744140623,-0.25900667905807495,-0.043982263654470444,0.03848448023200035
1775033701788918300,16.441918212890624,-0.21135921776294708,-0.03298669680953026,0.03481929376721382
1775033701840398800,16.49339892578125,-0.1899789422750473,-0.006108647678047419,0.017104214057326317
1775033701891879400,16.54487939453125,-0.13744457066059113,-0.0030543238390237093,-0.006719512399286032
1775033701943360000,16.596360107421877,-0.039706211537122726,0.010384701192378998,0.0030543238390237093
1775033701994840600,16.647840576171873,0.03176496922969818,-0.02260199747979641,-0.01649334840476513
1775033702046321200,16.699321044921874,0.0665842592716217,-0.010995565913617611,-0.014660755172371864
1775033702097801700,16.7508017578125,0.08124501258134842,0.001221729558892548,-0.024434590712189674
1775033702149282300,16.8022822265625,0.0824667438864708,0.01649334840476513,-0.018325943499803543
1775033702200763000,16.853762939453127,0.08491020649671555,0,-0.01649334840476513
1775033702252243500,16.905243408203123,0.08124501258134842,-0.017715077847242355,-0.0256563201546669
1775033702303724000,16.95672412109375,0.06719512492418289,-0.025045456364750862,-0.01282816007733345
1775033702355204600,17.00820458984375,0.05253437161445618,-0.021380268037319183,-0.01649334840476513
1775033702406685200,17.059685302734376,0.023823726922273636,-0.001832594396546483,-0.01282816007733345
1775033702458165800,17.111165771484377,-0.012217295356094837,-0.01649334840476513,0.000610864779446274
1775033702509646300,17.162646240234373,-0.01954767294228077,-0.023823726922273636,-0.002443459117785096
1775033702561127000,17.214126953125,-0.03237583488225937,-0.017715077847242355,0.006719512399286032
1775033702612607500,17.265607421875,-0.040317077189683914,-0.012217295356094837,-0.007941242307424545
1775033702664088000,17.317088134765626,-0.04153880476951599,-0.021991131827235222,0.003665188793092966
1775033702715568600,17.368568603515627,-0.05925388261675835,0.015271619893610477,-0.000610864779446274
1775033702767049200,17.42004931640625,-0.0720820426940918,0.003665188793092966,0.010995565913617611
1775033702818529800,17.47152978515625,-0.0818558782339096,-0.003665188793092966,0.0054977829568088055
1775033702870010400,17.52301025390625,-0.06475166976451874,-0.02260199747979641,0.006719512399286032
1775033702921491000,17.574490966796876,-0.06475166976451874,-0.006719512399286032,0.012217295356094837
1775033702972971500,17.625971435546877,-0.0665842592716217,0.009773836471140385,0.0054977829568088055
1775033703024452000,17.6774521484375,-0.027488915249705315,0.004276053514331579,0.002443459117785096
1775033703075932700,17.7289326171875,0.01954767294228077,-0.01893680728971958,0
1775033703127413200,17.780413330078126,0.05436696484684944,-0.01893680728971958,-0.001832594396546483
1775033703178893800,17.831893798828126,0.08368847519159317,0.009773836471140385,-0.014049889519810677
1775033703230374400,17.88337451171875,0.10384701192378998,0.018325943499803543,-0.009162971749901772
1775033703281855000,17.93485498046875,0.12583814561367035,0.014660755172371864,-0.017715077847242355
1775033703333335600,17.98633544921875,0.12705987691879272,0.002443459117785096,-0.026878049597144127
1775033703384816000,18.037816162109376,0.13011419773101807,-0.001832594396546483,-0.024434590712189674
1775033703436296700,18.089296630859376,0.10629047453403473,-0.010384701192378998,-0.023823726922273636
1775033703487777300,18.14077734375,0.08002328872680664,-0.001832594396546483,-0.026878049597144127
1775033703539257600,18.192257568359373,0.05558869615197182,-0.01282816007733345,-0.01649334840476513
1775033703633638700,18.286638671875,0.009773836471140385,-0.010995565913617611,-0.002443459117785096
1775033703685119200,18.338119140625,-0.008552107028663158,-0.014049889519810677,-0.004886918235570192
1775033703736599800,18.389599853515627,-0.020158538594841957,0,-0.001221729558892548
1775033703788080400,18.441080322265623,-0.02932151034474373,-0.01282816007733345,0.0030543238390237093
1775033703839561000,18.49256103515625,-0.021380268037319183,-0.003665188793092966,0.006108647678047419
1775033703891041500,18.54404150390625,-0.01954767294228077,0.003665188793092966,0.003665188793092966
1775033703942522000,18.595522216796876,-0.006108647678047419,0.014049889519810677,-0.0054977829568088055
1775033703994002700,18.647002685546877,-0.002443459117785096,0.01282816007733345,0.0030543238390237093
1775033704045483300,18.698483154296873,0.004276053514331579,0.001221729558892548,-0.007330377586185932
1775033704096963800,18.7499638671875,0.006719512399286032,-0.012217295356094837,-0.0030543238390237093
1775033704148444400,18.8014443359375,0.000610864779446274,0.004886918235570192,-0.006108647678047419
1775033704199925000,18.852925048828126,-0.004276053514331579,-0.012217295356094837,-0.013439024798572063
1775033704251405600,18.904405517578127,-0.003665188793092966,-0.037262752652168274,-0.013439024798572063
1775033704302886000,18.955885986328123,-0.01954767294228077,-0.0054977829568088055,0.002443459117785096
1775033704354366500,19.007366455078124,-0.03298669680953026,0.010995565913617611,-0.002443459117785096
1775033704405847000,19.058846923828124,-0.021380268037319183,-0.003665188793092966,-0.0030543238390237093
1775033704457327600,19.11032763671875,-0.025045456364750862,-0.018325943499803543,-0.001221729558892548
1775033704508808200,19.16180810546875,-0.018325943499803543,-0.002443459117785096,-0.000610864779446274
1775033704560288800,19.213288818359374,-0.006108647678047419,0,0.001221729558892548
1775033704611769300,19.264769287109374,0.009773836471140385,-0.031154103577136993,0.1130099818110466
1775033704663250000,19.31625,-0.017104214057326317,-0.12644900381565094,0.0665842592716217
1775033704714730500,19.36773046875,-0.07269290834665298,-0.026878049597144127,0.06963858753442764
1775033704766211000,19.419211181640627,-0.08796452730894089,0.04581485688686371,0.020158538594841957
1775033704817691600,19.470691650390624,-0.12217295914888382,-0.0360410213470459,-0.025045456364750862
1775033704869172200,19.522172119140624,-0.17104214429855347,0.08002328872680664,-0.08796452730894089
1775033704963553300,19.61655322265625,-0.1081230640411377,-0.04581485688686371,0.000610864779446274
1775033705015033900,19.668033935546877,-0.10690133273601532,0.015271619893610477,0.0030543238390237093
1775033705066514200,19.71951416015625,-0.056810423731803894,0.029932374134659767,0.006108647678047419
1775033705117994800,19.770994873046874,0.03298669680953026,-0.003665188793092966,-0.004886918235570192
1775033705169475300,19.822475341796874,0.04459312930703163,-0.034208428114652634,-0.01282816007733345
1775033705220956000,19.873955810546875,0.07635809481143951,-0.009773836471140385,-0.010995565913617611
1775033705272436500,19.9254365234375,0.09957095980644226,-0.025045456364750862,-0.028099779039621353
1775033705323917000,19.9769169921875,0.10384701192378998,-0.06780599057674408,0.0360410213470459
1775033705375397600,20.028397705078124,0.08429934084415436,0.007941242307424545,-0.01893680728971958
1775033705426878200,20.079878173828124,0.06719512492418289,-0.036651886999607086,0.008552107028663158
1775033705478358800,20.13135888671875,0.049480047076940536,-0.015271619893610477,-0.03176496922969818
1775033705529839400,20.18283935546875,-0.001221729558892548,0.008552107028663158,-0.01588248461484909
1775033705581320000,20.23431982421875,-0.02260199747979641,0.018325943499803543,-0.01893680728971958
1775033705632800500,20.285800537109374,-0.01282816007733345,-0.018325943499803543,-0.017104214057326317
1775033705684281000,20.337281005859374,-0.0054977829568088055,-0.008552107028663158,-0.01588248461484909
1775033705735761700,20.38876171875,0.010995565913617611,-0.002443459117785096,-0.014660755172371864
1775033705787242200,20.4402421875,0.0360410213470459,-0.0030543238390237093,-0.01649334840476513
1775033705838722600,20.49172265625,0.04886918142437935,-0.01649334840476513,-0.010384701192378998
1775033705890203100,20.543203125,0.05864302068948746,-0.011606430634856224,-0.007941242307424545
1775033705941683700,20.59468359375,0.059864748269319534,-0.056199558079242706,0.10445787757635117
1775033705993164300,20.646164306640625,0.033597562462091446,-0.1081230640411377,0.05253437161445618
1775033706044644900,20.697644775390625,-0.021380268037319183,0.002443459117785096,0.033597562462091446
1775033706096125400,20.74912548828125,-0.07757982611656189,0.03909534588456154,-0.0030543238390237093
1775033706147606000,20.80060595703125,-0.09896009415388107,-0.001832594396546483,-0.08918625861406326
1775033706199086600,20.852086669921874,-0.12950333952903748,0.10323614627122879,-0.04886918142437935
1775033706250567200,20.903567138671875,-0.09468404203653336,-0.06047561392188072,-0.000610864779446274
1775033706302047700,20.9550478515625,-0.09651663154363632,0.05253437161445618,-0.017104214057326317
1775033706353528300,21.0065283203125,-0.05864302068948746,0.0409279391169548,0.01282816007733345
1775033706405009000,21.0580087890625,0.037262752652168274,0.009162971749901772,-0.017104214057326317
1775033706456489500,21.109489501953124,0.05558869615197182,-0.010384701192378998,-0.012217295356094837
1775033706507970000,21.160969970703125,0.09285144507884979,0.008552107028663158,-0.021991131827235222
1775033706559450600,21.21245068359375,0.12095122784376144,-0.018325943499803543,-0.023212861269712448
1775033706610931200,21.26393115234375,0.1026252806186676,-0.01649334840476513,-0.021380268037319183
1775033706662411800,21.315411865234374,0.09651663154363632,0.030543239787220955,-0.023823726922273636
1775033706713892400,21.366892333984374,0.11545344442129135,0.003665188793092966,-0.014660755172371864
1775033706765373000,21.418373046875,0.11362084746360779,-0.03176496922969818,-0.031154103577136993
1775033706816853200,21.469853271484375,0.08002328872680664,0.000610864779446274,-0.018325943499803543
1775033706868333800,21.521333740234375,0.05070177838206291,0.009162971749901772,-0.023212861269712448
1775033706919814400,21.572814453125,0.031154103577136993,0.004276053514331579,-0.013439024798572063
1775033706971295000,21.624294921875,0.006719512399286032,-0.010995565913617611,-0.020158538594841957
1775033707022775600,21.675775634765625,-0.010384701192378998,-0.01893680728971958,-0.004886918235570192
1775033707074256100,21.727256103515625,-0.023212861269712448,-0.007330377586185932,-0.001832594396546483
1775033707125736700,21.77873681640625,-0.04153880476951599,0.004886918235570192,0.010384701192378998
1775033707177217300,21.83021728515625,-0.05253437161445618,0,0.010384701192378998
1775033707228697900,21.88169775390625,-0.0616973415017128,0.009162971749901772,0.025045456364750862
1775033707280178400,21.933178466796875,-0.05558869615197182,-0.0030543238390237093,0.01282816007733345
1775033707331659000,21.984658935546875,-0.036651886999607086,-0.009162971749901772,0.012217295356094837
1775033707383139600,22.0361396484375,-0.021991131827235222,-0.0054977829568088055,0.007330377586185932
1775033707434620200,22.0876201171875,-0.008552107028663158,0.0030543238390237093,-0.004276053514331579
1775033707486100700,22.139100830078124,-0.0030543238390237093,0.004276053514331579,0.004276053514331579
1775033707537581300,22.190581298828125,0.01588248461484909,-0.021380268037319183,-0.009162971749901772
1775033707589062000,22.242061767578125,0.020769402384757996,-0.017715077847242355,-0.006108647678047419
1775033707640542200,22.293542236328125,0.020769402384757996,-0.006108647678047419,-0.010995565913617611
1775033707692022800,22.345022705078126,0.021380268037319183,-0.0054977829568088055,-0.008552107028663158
1775033707743503400,22.39650341796875,0.020158538594841957,-0.01588248461484909,-0.014660755172371864
1775033707794984000,22.44798388671875,0.01649334840476513,-0.017715077847242355,-0.0054977829568088055
1775033707846464500,22.499464599609375,0.009773836471140385,-0.01954767294228077,-0.012217295356094837
1775033707897945000,22.550945068359376,-0.007330377586185932,-0.02260199747979641,-0.011606430634856224
1775033707949425700,22.60242578125,-0.02260199747979641,-0.01893680728971958,-0.008552107028663158
1775033708000906200,22.65390625,-0.030543239787220955,-0.010995565913617611,0.000610864779446274
1775033708052386800,22.70538671875,-0.03543015569448471,-0.007941242307424545,0.000610864779446274
1775033708103867400,22.756867431640625,-0.043982263654470444,-0.023823726922273636,0.001221729558892548
1775033708155348000,22.808347900390626,-0.050090912729501724,-0.01588248461484909,-0.006719512399286032
1775033708206828500,22.85982861328125,-0.10201441496610641,-0.017104214057326317,0.007330377586185932
1775033708258309000,22.91130908203125,-0.12522727251052856,0.009162971749901772,0.010384701192378998
1775033708309789400,22.96278955078125,-0.1185077652335167,-0.034208428114652634,0.014049889519810677
1775033708361270300,23.014270263671875,-0.09957095980644226,-0.017104214057326317,0.009162971749901772
1775033708412750600,23.06575048828125,-0.0720820426940918,-0.010995565913617611,0.010384701192378998
1775033708464231200,23.117231201171876,-0.03481929376721382,0.007330377586185932,-0.002443459117785096
1775033708515711700,23.168711669921876,0.006108647678047419,0.013439024798572063,0.001221729558892548
1775033708567192300,23.2201923828125,0.033597562462091446,0.007330377586185932,-0.01893680728971958
1775033708618673000,23.2716728515625,0.0769689604640007,-0.023212861269712448,-0.010995565913617611
1775033708670153500,23.323153564453126,0.13683371245861053,0.015271619893610477,-0.023823726922273636
1775033708721634000,23.374634033203126,0.13683371245861053,0.03298669680953026,-0.021380268037319183
1775033708773114600,23.426114501953126,0.09957095980644226,0.014660755172371864,-0.014049889519810677
1775033708824595200,23.47759521484375,0.08613193035125732,0.03543015569448471,-0.015271619893610477
1775033708876075800,23.52907568359375,0.039706211537122726,0.056810423731803894,0.001221729558892548
1775033708927556000,23.58055615234375,0.010995565913617611,0.04459312930703163,-0.007941242307424545
1775033708979037000,23.632036865234376,-0.001832594396546483,-0.000610864779446274,-0.002443459117785096
1775033709030517200,23.683517333984376,-0.03176496922969818,0.009773836471140385,0.007330377586185932
1775033709081997800,23.734997802734377,-0.05925388261675835,0.028099779039621353,0.01588248461484909
1775033709133478400,23.786478515625,-0.06230820715427399,0.004886918235570192,0.011606430634856224
1775033709184959000,23.837958984375,-0.05070177838206291,0.012217295356094837,0.006108647678047419
1775033709236439600,23.889439453125,-0.033597562462091446,0.004886918235570192,0.001832594396546483
1775033709287920000,23.940920166015626,-0.037262752652168274,0.0030543238390237093,0.0030543238390237093
1775033709339400700,23.992400634765627,-0.03176496922969818,0.001221729558892548,0.000610864779446274
1775033709390881300,24.04388134765625,-0.023212861269712448,0.0030543238390237093,-0.003665188793092966
1775033709442361900,24.09536181640625,0.006719512399286032,-0.02871064469218254,0.006108647678047419
1775033709493842400,24.146842529296876,0.014049889519810677,-0.010995565913617611,-0.015271619893610477
1775033709545322800,24.19832275390625,0.007330377586185932,0.002443459117785096,-0.006108647678047419
1775033709596803300,24.24980322265625,0.004886918235570192,0.01282816007733345,-0.003665188793092966
1775033709648284000,24.301283935546873,0.014049889519810677,0.023212861269712448,-0.003665188793092966
1775033709699764500,24.352764404296874,-0.000610864779446274,0.05253437161445618,-0.009162971749901772
1775033709751245000,24.4042451171875,-0.003665188793092966,0.020158538594841957,-0.01649334840476513
1775033709802725600,24.4557255859375,-0.001832594396546483,-0.01282816007733345,-0.001832594396546483
1775033709854206200,24.507206298828127,0.001832594396546483,0.0030543238390237093,0.001832594396546483
1775033709905686800,24.558686767578124,0.01893680728971958,0.03237583488225937,-0.011606430634856224
1775033709957167000,24.6101669921875,0.006108647678047419,-0.07513637095689774,0.014660755172371864
1775033710008647700,24.661647705078124,-0.004886918235570192,0.000610864779446274,-0.015271619893610477
1775033710060128300,24.713128173828125,-0.003665188793092966,-0.012217295356094837,-0.017715077847242355
1775033710111608800,24.76460888671875,0.006108647678047419,-0.028099779039621353,0.006108647678047419
1775033710163089400,24.81608935546875,0.036651886999607086,0.010384701192378998,-0.017104214057326317
1775033710214570000,24.867570068359374,0.043982263654470444,0.003665188793092966,0
1775033710266050600,24.919050537109374,0.03481929376721382,-0.004276053514331579,0.0054977829568088055
1775033710317531100,24.97053125,-0.007941242307424545,-0.0513126403093338,-0.001832594396546483
1775033710369011500,25.022011474609375,-0.028099779039621353,-0.05192350596189499,0.02260199747979641
1775033710420492000,25.073491943359375,-0.033597562462091446,-0.01649334840476513,0.014660755172371864
1775033710471972600,25.12497265625,-0.05864302068948746,-0.021991131827235222,0.027488915249705315
1775033710523453200,25.176453125,-0.10201441496610641,-0.010995565913617611,0.02932151034474373
1775033710574933800,25.227933837890625,-0.10506874322891235,0.008552107028663158,0.05192350596189499
1775033710626414300,25.279414306640625,-0.13988803327083588,-0.004276053514331579,0.06780599057674408
1775033710677894700,25.330894775390625,-0.15027274191379547,-0.029932374134659767,0.05436696484684944
1775033710729375200,25.382375244140626,-0.12217295914888382,0.039706211537122726,0.05558869615197182
1775033710780855800,25.433855712890626,-0.11728604137897491,0.021380268037319183,0.039706211537122726
1775033710832336400,25.48533642578125,-0.0616973415017128,-0.01954767294228077,0.034208428114652634
1775033710883817000,25.53681689453125,-0.020158538594841957,0.023823726922273636,0.010995565913617611
1775033710935297500,25.588297607421875,-0.023823726922273636,-0.013439024798572063,0.02260199747979641
1775033710986778000,25.639778076171876,-0.020769402384757996,-0.04520399495959282,0.002443459117785096
1775033711038258700,25.6912587890625,0.0054977829568088055,-0.03787361457943916,-0.02626718580722809
1775033711089739000,25.742739013671876,-0.003665188793092966,-0.10506874322891235,-0.01893680728971958
1775033711141219600,25.794219482421877,0.013439024798572063,-0.08124501258134842,-0.027488915249705315
1775033711192700200,25.8457001953125,0.02871064469218254,-0.05497783049941063,-0.007941242307424545
1775033711244180700,25.8971806640625,0.05864302068948746,-0.04581485688686371,-0.026878049597144127
1775033711295661300,25.948661376953126,0.07147117704153061,-0.10201441496610641,-0.05925388261675835
1775033711347142000,26.000141845703126,0.08429934084415436,-0.07391463965177536,-0.02871064469218254
1775033711398622200,26.051622314453127,0.0360410213470459,0.009773836471140385,0
1775033711450102800,26.103102783203123,0.0030543238390237093,-0.004276053514331579,0.01282816007733345
1775033711501583400,26.154583251953124,-0.07391463965177536,-0.008552107028663158,0.040317077189683914
1775033711553064000,26.20606396484375,-0.14721840620040894,0.017104214057326317,0.021380268037319183
1775033711604544500,26.25754443359375,-0.09590577334165573,-0.009773836471140385,0.004886918235570192
1775033711656025000,26.309025146484377,-0.06414080411195755,-0.04764745384454727,0.018325943499803543
1775033711707505700,26.360505615234374,-0.053145237267017365,-0.047036588191986084,0.01893680728971958
1775033711758986000,26.411986083984374,-0.000610864779446274,-0.020769402384757996,0.002443459117785096
1775033711810466600,26.463466552734374,0.03787361457943916,-0.03298669680953026,0.000610864779446274
1775033711861947100,26.514947021484375,0.04764745384454727,-0.006719512399286032,-0.001832594396546483
1775033711913427700,26.566427734375,0.06475166976451874,0.03543015569448471,-0.0054977829568088055
1775033711964908300,26.617908203125,0.05864302068948746,0.04214967042207718,0
1775033712016388600,26.669388671875,0.020769402384757996,0.01954767294228077,0.007330377586185932
1775033712067869200,26.720869140625,-0.017104214057326317,0.040317077189683914,0.000610864779446274
1775033712119349800,26.772349853515625,-0.025045456364750862,0.018325943499803543,-0.0054977829568088055
1775033712170830300,26.823830322265625,-0.04214967042207718,-0.009773836471140385,0.009162971749901772
1775033712222311000,26.875310791015625,-0.040317077189683914,0.01588248461484909,0.006719512399286032
1775033712273791500,26.92679150390625,-0.01954767294228077,0.010384701192378998,0.0030543238390237093
1775033712325271800,26.978271728515626,-0.03176496922969818,-0.007941242307424545,0.009773836471140385
1775033712376752400,27.02975244140625,-0.02626718580722809,-0.006719512399286032,0
1775033712428233000,27.08123291015625,-0.029932374134659767,0.043982263654470444,-0.006719512399286032
1775033712479713500,27.132713623046875,-0.01282816007733345,0.001221729558892548,-0.014660755172371864
1775033712531194000,27.184194091796876,0.021991131827235222,-0.012217295356094837,-0.012217295356094837
1775033712582674700,27.2356748046875,0.01649334840476513,0.012217295356094837,-0.009162971749901772
1775033712634155000,27.287155029296876,0.01588248461484909,-0.010384701192378998,-0.008552107028663158
1775033712685635600,27.338635498046877,0.024434590712189674,0.004276053514331579,-0.01954767294228077
1775033712737116200,27.3901162109375,0.014049889519810677,0.017104214057326317,-0.010384701192378998
1775033712788596700,27.4415966796875,0.0360410213470459,0.025045456364750862,-0.02260199747979641
1775033712840077300,27.493077392578126,0.017104214057326317,-0.009773836471140385,-0.02932151034474373
1775033712891558000,27.544557861328126,-0.047036588191986084,-0.03298669680953026,-0.01649334840476513
1775033712943038200,27.5960380859375,0.007941242307424545,0.004886918235570192,-0.03543015569448471
1775033712994518800,27.647518798828123,0.0513126403093338,0.017715077847242355,-0.008552107028663158
1775033713045999400,27.698999267578124,-0.031154103577136993,0.0616973415017128,-0.011606430634856224
1775033713097480000,27.75047998046875,-0.017104214057326317,0.031154103577136993,-0.010995565913617611
1775033713148960500,27.80196044921875,-0.015271619893610477,0.020158538594841957,-0.011606430634856224
1775033713200441000,27.853441162109377,-0.011606430634856224,0.029932374134659767,-0.010384701192378998
1775033713251921400,27.90492138671875,0.015271619893610477,-0.006719512399286032,-0.003665188793092966
1775033713303402000,27.956402099609374,0.025045456364750862,0.002443459117785096,-0.0030543238390237093
1775033713354882600,28.007882568359374,0.031154103577136993,0.04214967042207718,-0.015271619893610477
1775033713406363100,28.059363037109375,0.021991131827235222,0.0030543238390237093,0.002443459117785096
1775033713457843700,28.11084375,0.02871064469218254,-0.014660755172371864,-0.01649334840476513
1775033713509324300,28.16232421875,0.027488915249705315,0.007941242307424545,-0.025045456364750862
1775033713560804900,28.213804931640624,-0.004276053514331579,0.01954767294228077,-0.007941242307424545
1775033713612285200,28.26528515625,-0.024434590712189674,0.04459312930703163,-0.017104214057326317
1775033713663765800,28.316765869140625,-0.028099779039621353,0.031154103577136993,-0.007941242307424545
1775033713715246300,28.368246337890625,-0.040317077189683914,0.01954767294228077,-0.0030543238390237093
1775033713766727000,28.419726806640625,-0.040317077189683914,0.024434590712189674,-0.008552107028663158
1775033713818207500,28.47120751953125,-0.046425722539424896,0.029932374134659767,-0.004886918235570192
1775033713869688000,28.52268798828125,-0.037262752652168274,0.059864748269319534,-0.014049889519810677
1775033713921168400,28.57416845703125,-0.008552107028663158,0.05742128938436508,-0.020769402384757996
1775033713972649000,28.62564892578125,0.0030543238390237093,0.047036588191986084,-0.01954767294228077
1775033714024129500,28.677129638671875,0.009773836471140385,0.04886918142437935,-0.01954767294228077
1775033714075610000,28.728610107421876,0.010384701192378998,0.19608759880065918,-0.0824667438864708
1775033714127090700,28.780090576171876,0.021991131827235222,0.09529490768909454,-0.043371398001909256
1775033714178571300,28.8315712890625,-0.010384701192378998,0.0922405794262886,-0.043371398001909256
1775033714230051800,28.8830517578125,0.008552107028663158,-0.008552107028663158,-0.009162971749901772
1775033714281532200,28.9345322265625,0.01649334840476513,-0.04886918142437935,0.015271619893610477
1775033714333012700,28.9860126953125,0.001221729558892548,-0.05558869615197182,0.014049889519810677
1775033714384493300,29.037493408203126,0.004276053514331579,-0.10751219838857651,0.03237583488225937
1775033714435974000,29.088973876953126,0.0030543238390237093,-0.06047561392188072,0.017104214057326317
1775033714487454500,29.140454345703127,0.006719512399286032,-0.017715077847242355,0.008552107028663158
1775033714538935000,29.19193505859375,-0.004886918235570192,-0.02260199747979641,0.004886918235570192
1775033714590415400,29.243415283203124,-0.000610864779446274,-0.03481929376721382,0.0054977829568088055
1775033714641896000,29.29489599609375,0.000610864779446274,-0.021991131827235222,0.002443459117785096
1775033714693376500,29.34637646484375,0.0030543238390237093,-0.009162971749901772,-0.007330377586185932
1775033714744857000,29.397857177734377,0.010995565913617611,-0.007330377586185932,-0.004276053514331579
1775033714796337700,29.449337646484373,0.01954767294228077,-0.007330377586185932,-0.001221729558892548
1775033714847818200,29.500818359375,0.023212861269712448,-0.006108647678047419,0
1775033714899298600,29.552298583984374,0.025045456364750862,0.014049889519810677,-0.006719512399286032
1775033714950779100,29.603779052734374,0.012217295356094837,0.009162971749901772,-0.003665188793092966
1775033715002259700,29.655259765625,0.009162971749901772,-0.012217295356094837,0
1775033715053740300,29.706740234375,0.007330377586185932,-0.010384701192378998,-0.0030543238390237093
1775033715105220900,29.758220947265624,0.009773836471140385,0.0030543238390237093,-0.003665188793092966
1775033715156701400,29.809701416015624,0.002443459117785096,0.006108647678047419,-0.011606430634856224
1775033715208182000,29.86118212890625,-0.007330377586185932,-0.021380268037319183,-0.024434590712189674
1775033715259662300,29.912662353515625,-0.017104214057326317,-0.02932151034474373,-0.011606430634856224
1775033715311143000,29.964142822265625,-0.017104214057326317,0.01649334840476513,-0.0054977829568088055
1775033715362623500,30.01562353515625,-0.036651886999607086,-0.01893680728971958,-0.001221729558892548
1775033715414104000,30.06710400390625,-0.04886918142437935,0.015271619893610477,0.007330377586185932
1775033715465584600,30.118584716796875,-0.0513126403093338,-0.012217295356094837,0.0054977829568088055
1775033715517065000,30.17006494140625,-0.06536252796649933,0.0030543238390237093,0.008552107028663158
1775033715568545500,30.221545654296875,-0.06047561392188072,-0.01588248461484909,0.009773836471140385
1775033715620026000,30.273026123046876,-0.04886918142437935,-0.009162971749901772,0.009773836471140385
1775033715671506700,30.324506591796876,-0.036651886999607086,-0.011606430634856224,0.007941242307424545
1775033715722987300,30.3759873046875,-0.004276053514331579,-0.017104214057326317,0.007330377586185932
1775033715774467800,30.4274677734375,0.020769402384757996,-0.002443459117785096,0.0030543238390237093
1775033715825948200,30.4789482421875,0.03543015569448471,-0.006719512399286032,-0.008552107028663158
1775033715877428700,30.5304287109375,0.047036588191986084,-0.003665188793092966,-0.007330377586185932
1775033715928909300,30.581909423828126,0.06291907280683517,0.001832594396546483,-0.02260199747979641
1775033715980390000,30.633389892578126,0.06230820715427399,0.004886918235570192,-0.018325943499803543
1775033716031870200,30.6848701171875,0.07391463965177536,0.01954767294228077,-0.017715077847242355
1775033716083350800,30.736350830078123,0.05925388261675835,0,-0.017715077847242355
1775033716134831400,30.787831298828124,0.06230820715427399,-0.001832594396546483,-0.01588248461484909
1775033716186312000,30.83931201171875,0.056810423731803894,0.007941242307424545,-0.01282816007733345
1775033716237792500,30.89079248046875,0.021991131827235222,-0.009162971749901772,-0.007941242307424545
1775033716289273000,30.942273193359377,0.004886918235570192,-0.010384701192378998,-0.018325943499803543
1775033716340753400,30.99375341796875,-0.013439024798572063,-0.020769402384757996,-0.0054977829568088055
1775033716392234000,31.04523388671875,-0.030543239787220955,-0.002443459117785096,-0.0054977829568088055
1775033716443714600,31.096714599609374,-0.036651886999607086,-0.000610864779446274,-0.008552107028663158
1775033716495195100,31.148195068359374,-0.03787361457943916,-0.021991131827235222,0
1775033716546675700,31.19967578125,-0.043371398001909256,0.018325943499803543,0.000610864779446274
1775033716598156300,31.25115625,-0.0409279391169548,0.009162971749901772,0.003665188793092966
1775033716649636600,31.30263671875,-0.047036588191986084,-0.004886918235570192,0.007941242307424545
1775033716701117200,31.3541171875,-0.046425722539424896,-0.006108647678047419,-0.000610864779446274
1775033716752597800,31.40559765625,-0.05253437161445618,0.001832594396546483,0.003665188793092966
1775033716804078000,31.457078125,-0.053145237267017365,0.014660755172371864,0
1775033716855558700,31.50855859375,-0.03848448023200035,0.004886918235570192,0.001221729558892548
1775033716907039200,31.560039306640626,-0.01893680728971958,-0.002443459117785096,0.0030543238390237093
1775033716958519800,31.611519775390626,0.007941242307424545,-0.02260199747979641,0.0030543238390237093
1775033717010000400,31.66300048828125,0.024434590712189674,-0.001832594396546483,-0.006719512399286032
1775033717061480700,31.714480712890627,0.03298669680953026,-0.003665188793092966,-0.010384701192378998
1775033717112961300,31.765961181640623,0.03176496922969818,-0.01954767294228077,-0.004276053514331579
1775033717164441900,31.81744189453125,0.03543015569448471,-0.033597562462091446,-0.008552107028663158
1775033717215922400,31.86892236328125,0.02932151034474373,-0.007330377586185932,-0.007330377586185932
1775033717267403000,31.920403076171876,0.037262752652168274,-0.017715077847242355,-0.006108647678047419
1775033717318883300,31.97188330078125,0.03481929376721382,-0.002443459117785096,-0.003665188793092966
1775033717370364000,32.02336401367187,0.03787361457943916,0.012217295356094837,-0.01649334840476513
1775033717421844500,32.074844482421874,0.034208428114652634,-0.001832594396546483,-0.008552107028663158
1775033717473324800,32.12632470703125,0.04520399495959282,-0.020158538594841957,-0.015271619893610477
1775033717524805400,32.177805419921874,0.037262752652168274,-0.01893680728971958,-0.013439024798572063
1775033717576286000,32.229285888671875,0.02932151034474373,-0.020158538594841957,-0.012217295356094837
1775033717627766500,32.2807666015625,0.01893680728971958,-0.020769402384757996,-0.011606430634856224
1775033717679247000,32.3322470703125,0.001832594396546483,-0.010384701192378998,-0.006719512399286032
1775033717730727400,32.3837275390625,-0.008552107028663158,-0.017104214057326317,0.001832594396546483
1775033717782208000,32.4352080078125,-0.010384701192378998,-0.018325943499803543,-0.003665188793092966
1775033717833688600,32.4866884765625,-0.01282816007733345,-0.015271619893610477,-0.001221729558892548
1775033717885169200,32.53816918945312,-0.014049889519810677,-0.009773836471140385,-0.000610864779446274
1775033717936649500,32.5896494140625,-0.01954767294228077,0.017715077847242355,-0.009162971749901772
1775033717988130000,32.64113012695312,-0.024434590712189674,-0.004276053514331579,-0.0030543238390237093
1775033718039610600,32.69261059570312,-0.026878049597144127,-0.009773836471140385,-0.004276053514331579
1775033718091091000,32.74409106445312,-0.03481929376721382,0.001221729558892548,-0.002443459117785096
1775033718142571500,32.79557153320312,-0.031154103577136993,-0.000610864779446274,0.001221729558892548
1775033718194052000,32.847052001953124,-0.02260199747979641,-0.010384701192378998,0.004886918235570192
1775033718245532700,32.89853271484375,-0.015271619893610477,-0.001221729558892548,-0.001221729558892548
1775033718297013000,32.950012939453124,0.001832594396546483,0.0054977829568088055,-0.001832594396546483
1775033718348493600,33.00149365234375,0.009773836471140385,-0.014049889519810677,0.004886918235570192
1775033718399974100,33.05297412109375,0.013439024798572063,-0.010995565913617611,-0.004276053514331579
1775033718451454700,33.10445483398438,0.01588248461484909,-0.004276053514331579,0
1775033718502935000,33.15593505859375,0.021991131827235222,-0.000610864779446274,-0.0054977829568088055
1775033718554415600,33.20741552734375,0.021380268037319183,0,-0.007330377586185932
1775033718605896200,33.25889624023438,0.015271619893610477,-0.008552107028663158,-0.006719512399286032
1775033718657376500,33.31037646484375,0.006108647678047419,-0.006108647678047419,-0.007330377586185932
1775033718708857000,33.36185717773437,-0.002443459117785096,-0.010384701192378998,-0.004886918235570192
1775033718760337700,33.41333764648437,-0.003665188793092966,-0.009162971749901772,-0.004886918235570192
1775033718811818000,33.46481787109375,-0.007941242307424545,-0.012217295356094837,-0.001832594396546483
1775033718863298600,33.51629858398437,-0.008552107028663158,-0.010384701192378998,-0.003665188793092966
1775033718914779100,33.56777905273437,-0.007941242307424545,0.006719512399286032,-0.010995565913617611
1775033718966259700,33.619259765625,-0.009773836471140385,-0.01588248461484909,-0.0030543238390237093
1775033719017740000,33.670739990234374,-0.012217295356094837,-0.002443459117785096,-0.0030543238390237093
1775033719069220600,33.722220703125,-0.014049889519810677,-0.007941242307424545,-0.001221729558892548
1775033719120701200,33.773701171875,-0.013439024798572063,-0.009162971749901772,-0.001221729558892548
1775033719172181800,33.825181640625,-0.010995565913617611,-0.001221729558892548,0
1775033719223662000,33.876662109375,-0.004886918235570192,-0.003665188793092966,-0.002443459117785096
1775033719275142700,33.928142578125,-0.004886918235570192,-0.014049889519810677,0
1775033719326623000,33.979623046875,0.000610864779446274,-0.001221729558892548,-0.004276053514331579
1775033719378103600,34.031103515625,0.003665188793092966,-0.000610864779446274,-0.002443459117785096
1775033719429584100,34.08258422851563,0.0030543238390237093,-0.01588248461484909,0.001832594396546483
1775033719481064700,34.13406469726562,0.0054977829568088055,-0.007330377586185932,-0.003665188793092966
1775033719532545000,34.185544921875,0.004886918235570192,0.001221729558892548,-0.003665188793092966
1775033719584025600,34.23702563476562,0.000610864779446274,-0.010995565913617611,0.002443459117785096
1775033719635506200,34.28850610351562,0.003665188793092966,-0.007330377586185932,-0.002443459117785096
1775033719686986800,34.33998681640625,0.001221729558892548,0,-0.0030543238390237093
1775033719738467000,34.39146704101562,0.001221729558892548,-0.009773836471140385,0.001221729558892548
1775033719789947600,34.44294775390625,0.004886918235570192,-0.001221729558892548,-0.002443459117785096
1775033719841428000,34.494427978515624,0.006108647678047419,0.006108647678047419,-0.0030543238390237093
1775033719892908500,34.545908447265624,-0.004276053514331579,-0.004886918235570192,-0.000610864779446274
1775033719944389000,34.59738916015625,-0.006719512399286032,-0.010995565913617611,-0.0030543238390237093
1775033719995869400,34.648869384765625,-0.008552107028663158,-0.006108647678047419,-0.004886918235570192
1775033720047350000,34.70035009765625,-0.004886918235570192,-0.02626718580722809,0.004886918235570192
1775033720098830600,34.75183056640625,0.000610864779446274,-0.040317077189683914,0.006108647678047419
1775033720150311200,34.80331127929688,0.009773836471140385,-0.004886918235570192,-0.0054977829568088055
1775033720201791700,34.85479174804688,0.007941242307424545,0.017104214057326317,-0.006719512399286032
1775033720253272000,34.90627197265625,-0.001221729558892548,0.028099779039621353,-0.015271619893610477
1775033720304752600,34.95775268554687,-0.010995565913617611,0.007330377586185932,-0.004276053514331579
1775033720356233200,35.00923315429687,-0.010995565913617611,-0.011606430634856224,-0.004886918235570192
1775033720407713500,35.06071362304687,-0.008552107028663158,-0.0054977829568088055,-0.001221729558892548
1775033720459194000,35.11219409179687,-0.000610864779446274,0.0054977829568088055,-0.006719512399286032
1775033720510674700,35.1636748046875,-0.002443459117785096,-0.004886918235570192,-0.001832594396546483
1775033720562155000,35.215155029296874,-0.0054977829568088055,-0.009162971749901772,-0.0054977829568088055
1775033720613635600,35.266635498046874,-0.006108647678047419,-0.01282816007733345,-0.001832594396546483
1775033720665116200,35.3181162109375,-0.010384701192378998,-0.014049889519810677,-0.003665188793092966
1775033720716596500,35.369596435546875,-0.0054977829568088055,-0.004886918235570192,-0.0054977829568088055
1775033720768077000,35.4210771484375,-0.000610864779446274,-0.004276053514331579,-0.0054977829568088055
1775033720819557600,35.4725576171875,0.001221729558892548,-0.012217295356094837,-0.004276053514331579
1775033720871038200,35.5240380859375,0.001832594396546483,-0.011606430634856224,-0.007330377586185932
1775033720922518500,35.5755185546875,-0.001832594396546483,-0.0030543238390237093,-0.003665188793092966
1775033720973999000,35.6269990234375,-0.002443459117785096,-0.008552107028663158,-0.006719512399286032
1775033721025479700,35.67847973632813,-0.001221729558892548,-0.0030543238390237093,-0.006108647678047419
1775033721076960000,35.7299599609375,-0.004276053514331579,-0.004886918235570192,-0.0054977829568088055
1775033721128440600,35.78144067382812,-0.0030543238390237093,-0.008552107028663158,-0.006719512399286032
1775033721179921200,35.83292114257812,-0.012217295356094837,0.001221729558892548,-0.017104214057326317
1775033721231401700,35.88440161132812,-0.018325943499803543,-0.002443459117785096,-0.014660755172371864
1775033721282882000,35.93588208007812,-0.026878049597144127,-0.007941242307424545,-0.012217295356094837
1775033721334362600,35.98736254882812,-0.043982263654470444,-0.01282816007733345,-0.001832594396546483
1775033721385843200,36.03884326171875,-0.06597339361906052,-0.010995565913617611,0.002443459117785096
1775033721437323500,36.090323486328124,-0.0616973415017128,-0.011606430634856224,0.008552107028663158
1775033721488804000,36.14180419921875,-0.05436696484684944,-0.015271619893610477,0.013439024798572063
1775033721540284700,36.19328466796875,-0.04276053607463837,-0.021380268037319183,0.0054977829568088055
1775033721591765200,36.24476513671875,-0.031154103577136993,0.001221729558892548,0.003665188793092966
1775033721643245600,36.29624560546875,-0.0054977829568088055,-0.008552107028663158,0.003665188793092966
1775033721694726100,36.34772607421875,0.013439024798572063,-0.003665188793092966,0.004886918235570192
1775033721746206700,36.39920678710938,0.034208428114652634,-0.010995565913617611,-0.004886918235570192
1775033721797687000,36.45068701171875,0.03787361457943916,-0.007941242307424545,0.001221729558892548
1775033721849167600,36.50216772460937,0.05192350596189499,0.014049889519810677,-0.004886918235570192
1775033721900648200,36.55364819335937,0.06291907280683517,0.003665188793092966,-0.006108647678047419
1775033721952128800,36.60512866210937,0.053756099194288254,0.0054977829568088055,-0.015271619893610477
1775033722003609000,36.65660913085937,0.034208428114652634,-0.0054977829568088055,-0.0054977829568088055
1775033722055089700,36.70808959960937,0.020158538594841957,0.007941242307424545,-0.008552107028663158
1775033722106570200,36.7595703125,0.006108647678047419,-0.009773836471140385,0.001832594396546483
1775033722158050800,36.81105078125,-0.0030543238390237093,-0.023823726922273636,0.0030543238390237093
1775033722209531100,36.86253125,-0.004276053514331579,0.003665188793092966,-0.002443459117785096
1775033722261011700,36.91401171875,-0.010384701192378998,0.004276053514331579,-0.000610864779446274
1775033722312492000,36.965491943359375,-0.017104214057326317,0.004276053514331579,-0.002443459117785096
1775033722363972600,37.01697265625,-0.012217295356094837,0.0054977829568088055,-0.004276053514331579
1775033722415453200,37.068453125,-0.009162971749901772,-0.010384701192378998,-0.004276053514331579
1775033722466933800,37.11993383789063,-0.007330377586185932,-0.002443459117785096,-0.007941242307424545
1775033722518414300,37.17141430664063,0.000610864779446274,0.001832594396546483,-0.004276053514331579
1775033722569894700,37.22289477539063,0.006108647678047419,-0.010384701192378998,-0.003665188793092966
1775033722621375200,37.27437524414062,0.0054977829568088055,0.000610864779446274,-0.006719512399286032
1775033722672855800,37.32585571289062,0.008552107028663158,-0.01282816007733345,-0.006108647678047419
1775033722724336000,37.37733618164062,0,-0.008552107028663158,0
1775033722775816700,37.42881665039062,-0.0030543238390237093,-0.007941242307424545,-0.001832594396546483
1775033722827297300,37.48029736328125,-0.009162971749901772,-0.003665188793092966,0.002443459117785096
1775033722878777600,37.53177758789062,-0.008552107028663158,-0.004886918235570192,0.001221729558892548
1775033722930258200,37.583258056640624,-0.004886918235570192,-0.002443459117785096,-0.002443459117785096
1775033722981738800,37.63473876953125,-0.004276053514331579,-0.009773836471140385,0
1775033723033219300,37.68621923828125,-0.008552107028663158,-0.01282816007733345,-0.004276053514331579
1775033723084699600,37.73769970703125,-0.001832594396546483,-0.011606430634856224,-0.004276053514331579
1775033723136180200,37.78918017578125,0.001221729558892548,-0.014660755172371864,-0.007330377586185932
1775033723187660800,37.84066088867188,0.002443459117785096,-0.003665188793092966,-0.009773836471140385
1775033723239141000,37.89214111328125,-0.007330377586185932,-0.017715077847242355,-0.002443459117785096
1775033723290621700,37.94362158203125,-0.03481929376721382,-0.023823726922273636,0
1775033723342102300,37.99510229492188,-0.05497783049941063,-0.007330377586185932,0.006108647678047419
1775033723393582800,38.04658276367188,-0.06230820715427399,-0.031154103577136993,0.009162971749901772
1775033723445063200,38.09806323242187,-0.05742128938436508,-0.03176496922969818,0.004276053514331579
1775033723496543700,38.14954370117187,-0.04520399495959282,-0.002443459117785096,-0.008552107028663158
1775033723548024300,38.2010244140625,-0.04153880476951599,0.004886918235570192,0.003665188793092966
1775033723599504600,38.25250463867187,-0.03787361457943916,-0.006108647678047419,0
1775033723650985200,38.30398510742187,-0.04520399495959282,-0.031154103577136993,0.000610864779446274
1775033723702465800,38.3554658203125,-0.043371398001909256,-0.01588248461484909,0.0054977829568088055
1775033723753946000,38.406946044921874,-0.056199558079242706,0.0030543238390237093,-0.008552107028663158
1775033723805426700,38.4584267578125,-0.06230820715427399,-0.001221729558892548,0.007941242307424545
1775033723856907300,38.5099072265625,-0.06414080411195755,-0.020769402384757996,-0.004886918235570192
1775033723908387600,38.5613876953125,-0.10018182545900345,-0.018325943499803543,0.014049889519810677
1775033723959868200,38.6128681640625,-0.12034036219120026,-0.0054977829568088055,0.021991131827235222
1775033724011348700,38.6643486328125,-0.11178825795650482,-0.013439024798572063,0.01282816007733345
1775033724062829300,38.71582934570313,-0.07635809481143951,-0.03298669680953026,0.020769402384757996
1775033724114309600,38.7673095703125,-0.030543239787220955,-0.017715077847242355,0.01893680728971958
1775033724165790200,38.81879028320313,0.028099779039621353,0.012217295356094837,0.008552107028663158
1775033724217270500,38.8702705078125,0.06352993845939636,0.014049889519810677,-0.002443459117785096
1775033724268751000,38.92175122070312,0.11423171311616898,-0.0030543238390237093,-0.013439024798572063
1775033724320231700,38.97323168945312,0.15271618962287903,0.02626718580722809,-0.027488915249705315
1775033724371712300,39.02471215820312,0.1747073233127594,0.05192350596189499,-0.034208428114652634
1775033724423192600,39.07619262695312,0.19425499439239502,0.04459312930703163,-0.034208428114652634
1775033724474673200,39.12767309570312,0.205861434340477,-0.021991131827235222,-0.03481929376721382
1775033724526153700,39.17915380859375,0.19242240488529205,-0.004886918235570192,-0.04886918142437935
1775033724577634000,39.230634033203124,0.16737695038318634,0.0054977829568088055,-0.0616973415017128
1775033724629114600,39.282114501953124,0.0977383628487587,0.004886918235570192,-0.049480047076940536
1775033724680595000,39.333594970703125,0.025045456364750862,-0.027488915249705315,-0.012217295356094837
1775033724732075500,39.385075439453125,-0.0360410213470459,-0.043982263654470444,-0.000610864779446274
1775033724783556000,39.43655615234375,-0.0873536616563797,-0.017104214057326317,0.011606430634856224
1775033724835036400,39.488036376953126,-0.13194678723812103,-0.029932374134659767,0.01893680728971958
1775033724886517000,39.53951708984375,-0.18203771114349365,-0.040317077189683914,0.018325943499803543
1775033724937997600,39.59099755859375,-0.2718348205089569,-0.021380268037319183,0.04886918142437935
1775033724989478000,39.64247778320313,-0.2809978127479553,-0.013439024798572063,0.056199558079242706
1775033725040958500,39.69395849609375,-0.2467893660068512,-0.040317077189683914,0.04764745384454727
1775033725092439000,39.74543896484375,-0.1954767256975174,-0.039706211537122726,0.036651886999607086
1775033725143919600,39.79691967773437,-0.13988803327083588,-0.013439024798572063,0.011606430634856224
1775033725195400000,39.84839990234375,-0.08307760953903198,0.0360410213470459,0.009773836471140385
1775033725246880500,39.89988061523437,0.008552107028663158,-0.014660755172371864,-0.004276053514331579
1775033725298360800,39.95136083984375,0.04581485688686371,-0.01282816007733345,-0.004276053514331579
1775033725349841400,40.00284130859375,0.07574722915887833,-0.006719512399286032,-0.015271619893610477
1775033725401321700,40.05432177734375,0.08918625861406326,0.021380268037319183,-0.01954767294228077
1775033725452802300,40.10580224609375,0.08124501258134842,0.008552107028663158,-0.012217295356094837
1775033725504283000,40.157282958984375,0.06902772188186646,0.004276053514331579,-0.010384701192378998
1775033725555763200,40.20876318359375,0.05253437161445618,-0.018325943499803543,-0.004276053514331579
1775033725607243800,40.260243896484376,0.037262752652168274,-0.011606430634856224,-0.009162971749901772
1775033725658724400,40.311724365234376,0.010384701192378998,-0.004276053514331579,-0.001832594396546483
1775033725710204700,40.36320458984375,-0.006719512399286032,-0.018325943499803543,0.002443459117785096
1775033725761685200,40.41468530273438,-0.011606430634856224,-0.001832594396546483,-0.0054977829568088055
1775033725813165600,40.46616552734375,-0.013439024798572063,-0.009162971749901772,0.0030543238390237093
1775033725864646100,40.51764624023438,-0.020158538594841957,-0.023823726922273636,0.0030543238390237093
1775033725916126700,40.56912670898438,-0.01954767294228077,-0.004276053514331579,-0.007330377586185932
1775033725967607300,40.62060717773438,-0.02871064469218254,-0.012217295356094837,0.0054977829568088055
1775033726019087600,40.67208764648438,-0.021991131827235222,-0.000610864779446274,-0.001832594396546483
1775033726113468400,40.76646850585937,-0.015271619893610477,-0.003665188793092966,-0.003665188793092966
1775033726164949000,40.81794897460937,-0.013439024798572063,0.004886918235570192,-0.0030543238390237093
1775033726216429600,40.8694296875,-0.006108647678047419,-0.03176496922969818,0.010995565913617611
1775033726267910000,40.92090991210937,0.001832594396546483,-0.043982263654470444,0.01282816007733345
1775033726319390500,40.97239038085937,0.010995565913617611,-0.056199558079242706,0.020158538594841957
1775033726370870800,41.023870849609374,0.015271619893610477,-0.001221729558892548,-0.020158538594841957
1775033726422351400,41.075351318359374,0.017104214057326317,0.0513126403093338,-0.02626718580722809
