time,seconds_elapsed,z,y,x
1775033801183160300,0.097160400390625,9.930811882019043,-0.026919255033135414,0.12741780281066895
1775033801234641200,0.14864111328125,9.964311599731445,0.003589233849197626,0.02751746028661728
1775033801286122000,0.2001220703125,9.29910659790039,0.08255238085985184,-0.05922235921025276
1775033801337602800,0.251602783203125,10.536794662475586,-0.05383851006627083,0.19322042167186737
1775033801389083600,0.303083740234375,9.57188892364502,0.07118647545576096,-0.05922235921025276
1775033801440564500,0.354564453125,9.784850120544434,0.03290131315588951,0.02392822690308094
1775033801492045300,0.40604541015625,10.042078018188477,-0.0005982056609354913,0.09870393574237823
1775033801543526100,0.457526123046875,9.89970588684082,0.022133609279990196,0.037088751792907715
1775033801595007200,0.50900732421875,9.821938514709473,0.03290131315588951,0.031106693670153618
1775033801646488000,0.560488037109375,9.882357597351074,0.02871387079358101,0.04486542567610741
1775033801697969000,0.611968994140625,9.865009307861328,0.03170489892363548,0.04426721855998039
1775033801749449700,0.66344970703125,9.872187614440918,0.030508488416671753,0.04127619042992592
1775033801800930600,0.7149306640625,9.868598937988281,0.020937198773026466,0.04187439754605293
1775033801852411400,0.766411376953125,9.873982429504395,0.030508488416671753,0.03768695518374443
1775033801903892200,0.817892333984375,9.866804122924805,0.026919255033135414,0.040677983313798904
1775033801955373000,0.869373046875,9.873384475708008,0.02751746028661728,0.04247260093688965
1775033802006854000,0.92085400390625,9.867402076721191,0.02871387079358101,0.04007977992296219
1775033802058334700,0.972334716796875,9.872187614440918,0.02751746028661728,0.04307080805301666
1775033802109815600,1.023815673828125,9.869794845581055,0.025722842663526535,0.04127619042992592
1775033802161296400,1.07529638671875,9.867402076721191,0.025722842663526535,0.03888336941599846
1775033802212777500,1.126777587890625,9.869196891784668,0.025722842663526535,0.04127619042992592
1775033802264258300,1.17825830078125,9.868598937988281,0.029312077909708023,0.04486542567610741
1775033802315739100,1.2297392578125,9.872786521911621,0.028115665540099144,0.04127619042992592
1775033802367220000,1.281219970703125,9.872786521911621,0.02632104977965355,0.039481572806835175
1775033802418700800,1.33270068359375,9.870991706848145,0.03409772366285324,0.04366901144385338
1775033802470181600,1.384181640625,9.870991706848145,0.030508488416671753,0.040677983313798904
1775033802521662500,1.435662353515625,9.870393753051758,0.02632104977965355,0.04486542567610741
1775033802573143300,1.487143310546875,9.870393753051758,0.030508488416671753,0.04486542567610741
1775033802624624000,1.5386240234375,9.867402076721191,0.026919255033135414,0.04247260093688965
1775033802676105000,1.59010498046875,9.872187614440918,0.029312077909708023,0.04127619042992592
1775033802727585800,1.641585693359375,9.869794845581055,0.02273181453347206,0.0364905446767807
1775033802779066600,1.693066650390625,9.873384475708008,0.02871387079358101,0.04127619042992592
1775033802830547700,1.744547607421875,9.872187614440918,0.030508488416671753,0.04187439754605293
1775033802882028500,1.796028564453125,9.872187614440918,0.023330021649599075,0.04007977992296219
1775033802933509400,1.84750927734375,9.869794845581055,0.026919255033135414,0.046061836183071136
1775033802984990200,1.898990234375,9.870393753051758,0.028115665540099144,0.04127619042992592
1775033803036471000,1.950470947265625,9.868598937988281,0.029312077909708023,0.047258246690034866
1775033803087952000,2.001951904296875,9.870991706848145,0.030508488416671753,0.04366901144385338
1775033803139432700,2.0534326171875,9.867402076721191,0.025722842663526535,0.03888336941599846
1775033803190913500,2.10491357421875,9.868598937988281,0.02632104977965355,0.04007977992296219
1775033803242394400,2.156394287109375,9.869794845581055,0.03170489892363548,0.04127619042992592
1775033803293875200,2.207875244140625,9.873384475708008,0.02273181453347206,0.03768695518374443
1775033803345356000,2.25935595703125,9.868000984191895,0.026919255033135414,0.04666004329919815
1775033803396836900,2.3108369140625,9.872786521911621,0.029312077909708023,0.04127619042992592
1775033803448317700,2.362317626953125,9.873982429504395,0.028115665540099144,0.03888336941599846
1775033803499798500,2.413798583984375,9.869794845581055,0.03170489892363548,0.04247260093688965
1775033803551279400,2.465279296875,9.863813400268555,0.028115665540099144,0.04247260093688965
1775033803602760200,2.51676025390625,9.873384475708008,0.026919255033135414,0.047258246690034866
1775033803654241000,2.568240966796875,9.868000984191895,0.024526432156562805,0.0364905446767807
1775033803705721900,2.619721923828125,9.869196891784668,0.02273181453347206,0.04007977992296219
1775033803757202700,2.67120263671875,9.868598937988281,0.024526432156562805,0.04127619042992592
1775033803808683500,2.72268359375,9.868598937988281,0.031106693670153618,0.04007977992296219
1775033803860164400,2.774164306640625,9.876974105834961,0.03170489892363548,0.04127619042992592
1775033803911645200,2.825645263671875,9.868598937988281,0.031106693670153618,0.04366901144385338
1775033803963126000,2.8771259765625,9.870991706848145,0.028115665540099144,0.04247260093688965
1775033804014606800,2.92860693359375,9.870393753051758,0.028115665540099144,0.03888336941599846
1775033804066088000,2.980087890625,9.873384475708008,0.02632104977965355,0.03888336941599846
1775033804117568800,3.03156884765625,9.870991706848145,0.02632104977965355,0.0364905446767807
1775033804169049600,3.083049560546875,9.876974105834961,0.030508488416671753,0.04486542567610741
1775033804220530400,3.134530517578125,9.873384475708008,0.02632104977965355,0.04307080805301666
1775033804272011300,3.18601123046875,9.870991706848145,0.023330021649599075,0.04366901144385338
1775033804323492000,3.2374921875,9.869196891784668,0.02751746028661728,0.04187439754605293
1775033804374973000,3.288972900390625,9.872187614440918,0.029312077909708023,0.046061836183071136
1775033804426453800,3.340453857421875,9.869196891784668,0.028115665540099144,0.04127619042992592
1775033804477934600,3.3919345703125,9.870991706848145,0.029910283163189888,0.04307080805301666
1775033804529415400,3.44341552734375,9.873982429504395,0.02512463741004467,0.04007977992296219
1775033804580896300,3.494896240234375,9.862616539001465,0.029312077909708023,0.038285162299871445
1775033804632377000,3.546377197265625,9.874580383300781,0.026919255033135414,0.04007977992296219
1775033804683858000,3.59785791015625,9.868598937988281,0.02751746028661728,0.04247260093688965
1775033804735338800,3.6493388671875,9.870991706848145,0.026919255033135414,0.04666004329919815
1775033804786819600,3.700819580078125,9.870991706848145,0.031106693670153618,0.039481572806835175
1775033804838300400,3.752300537109375,9.870991706848145,0.026919255033135414,0.04486542567610741
1775033804889781200,3.80378125,9.868000984191895,0.02632104977965355,0.04247260093688965
1775033804941262000,3.855261962890625,9.872786521911621,0.02871387079358101,0.04486542567610741
1775033804992743000,3.906742919921875,9.869794845581055,0.030508488416671753,0.04366901144385338
1775033805044223700,3.9582236328125,9.870991706848145,0.026919255033135414,0.047258246690034866
1775033805095704600,4.00970458984375,9.869794845581055,0.03409772366285324,0.04366901144385338
1775033805147185400,4.061185302734375,9.872187614440918,0.030508488416671753,0.04247260093688965
1775033805198666200,4.112666259765625,9.870991706848145,0.026919255033135414,0.03888336941599846
1775033805250147000,4.16414697265625,9.869196891784668,0.028115665540099144,0.04366901144385338
1775033805301628000,4.2156279296875,9.875179290771484,0.029312077909708023,0.04366901144385338
1775033805353108700,4.267108642578125,9.872786521911621,0.029910283163189888,0.04127619042992592
1775033805404589600,4.318589599609375,9.870991706848145,0.029312077909708023,0.04247260093688965
1775033805456070400,4.3700703125,9.872187614440918,0.028115665540099144,0.04007977992296219
1775033805507551200,4.42155126953125,9.869794845581055,0.030508488416671753,0.04007977992296219
1775033805559032000,4.473031982421875,9.874580383300781,0.028115665540099144,0.04007977992296219
1775033805610513000,4.524512939453125,9.871589660644531,0.023330021649599075,0.04366901144385338
1775033805661993700,4.57599365234375,9.872187614440918,0.02153540402650833,0.03768695518374443
1775033805713474600,4.627474609375,9.872786521911621,0.030508488416671753,0.04127619042992592
1775033805764955400,4.678955322265625,9.869794845581055,0.025722842663526535,0.04307080805301666
1775033805816436200,4.730436279296875,9.869794845581055,0.0323031060397625,0.04666004329919815
1775033805867916800,4.781916748046875,9.873384475708008,0.029312077909708023,0.04247260093688965
1775033805919397600,4.833397705078125,9.872187614440918,0.024526432156562805,0.04426721855998039
1775033805970878500,4.88487841796875,9.873384475708008,0.029910283163189888,0.04426721855998039
1775033806022359300,4.936359375,9.875777244567871,0.026919255033135414,0.04247260093688965
1775033806073840000,4.987840087890625,9.869794845581055,0.025722842663526535,0.04007977992296219
1775033806125321000,5.039321044921875,9.871589660644531,0.026919255033135414,0.04127619042992592
1775033806176801800,5.0908017578125,9.872786521911621,0.029910283163189888,0.04127619042992592
1775033806228282600,5.14228271484375,9.868000984191895,0.029312077909708023,0.04127619042992592
1775033806279763500,5.193763427734375,9.866206169128418,0.026919255033135414,0.04486542567610741
1775033806331244300,5.245244384765625,9.869794845581055,0.03349951654672623,0.04366901144385338
1775033806382725000,5.29672509765625,9.869794845581055,0.030508488416671753,0.04187439754605293
1775033806434206000,5.3482060546875,9.871589660644531,0.030508488416671753,0.04127619042992592
1775033806485686800,5.399686767578125,9.875179290771484,0.030508488416671753,0.03768695518374443
1775033806537167600,5.451167724609375,9.868000984191895,0.022133609279990196,0.03888336941599846
1775033806588648400,5.5026484375,9.866206169128418,0.029910283163189888,0.040677983313798904
1775033806640129300,5.55412939453125,9.870393753051758,0.02512463741004467,0.03888336941599846
1775033806691610000,5.605610107421875,9.876375198364258,0.029910283163189888,0.04247260093688965
1775033806743091000,5.657091064453125,9.871589660644531,0.025722842663526535,0.04366901144385338
1775033806794571800,5.70857177734375,9.871589660644531,0.026919255033135414,0.04247260093688965
1775033806846052600,5.760052490234375,9.872786521911621,0.024526432156562805,0.04247260093688965
1775033806897533400,5.811533447265625,9.870393753051758,0.030508488416671753,0.040677983313798904
1775033806949014300,5.86301416015625,9.872187614440918,0.030508488416671753,0.04486542567610741
1775033807000494800,5.914494873046875,9.874580383300781,0.024526432156562805,0.04666004329919815
1775033807051975700,5.9659755859375,9.872187614440918,0.02751746028661728,0.04366901144385338
1775033807103456500,6.01745654296875,9.871589660644531,0.02871387079358101,0.04247260093688965
1775033807154937300,6.068937255859375,9.869794845581055,0.028115665540099144,0.040677983313798904
1775033807206418200,6.120418212890625,9.869794845581055,0.031106693670153618,0.040677983313798904
1775033807257899000,6.17189892578125,9.867402076721191,0.02751746028661728,0.04247260093688965
1775033807309379800,6.2233798828125,9.866804122924805,0.026919255033135414,0.04247260093688965
1775033807360860700,6.274860595703125,9.870991706848145,0.028115665540099144,0.04007977992296219
1775033807412341500,6.326341552734375,9.865009307861328,0.029910283163189888,0.04307080805301666
1775033807463822300,6.377822265625,9.870991706848145,0.029910283163189888,0.04127619042992592
1775033807515303200,6.42930322265625,9.869794845581055,0.03170489892363548,0.04366901144385338
1775033807566783700,6.48078369140625,9.868000984191895,0.030508488416671753,0.04426721855998039
1775033807618264600,6.5322646484375,9.871589660644531,0.028115665540099144,0.04007977992296219
1775033807669745400,6.583745361328125,9.872187614440918,0.02871387079358101,0.03768695518374443
1775033807721226200,6.635226318359375,9.868598937988281,0.028115665540099144,0.04426721855998039
1775033807772707000,6.68670703125,9.871589660644531,0.029312077909708023,0.04127619042992592
1775033807824188000,6.73818798828125,9.873384475708008,0.02871387079358101,0.04247260093688965
1775033807875668700,6.789668701171875,9.870393753051758,0.029312077909708023,0.040677983313798904
1775033807927149600,6.841149658203125,9.870991706848145,0.02632104977965355,0.039481572806835175
1775033807978630400,6.89263037109375,9.868000984191895,0.028115665540099144,0.040677983313798904
1775033808030111000,6.944111083984375,9.868598937988281,0.023330021649599075,0.040677983313798904
1775033808081591800,6.995591796875,9.875179290771484,0.025722842663526535,0.04366901144385338
1775033808133072600,7.04707275390625,9.866804122924805,0.024526432156562805,0.04007977992296219
1775033808184553500,7.098553466796875,9.866206169128418,0.0323031060397625,0.04366901144385338
1775033808236034300,7.150034423828125,9.872786521911621,0.026919255033135414,0.04366901144385338
1775033808287515100,7.20151513671875,9.873384475708008,0.029312077909708023,0.04007977992296219
1775033808338996000,7.252995849609375,9.871589660644531,0.026919255033135414,0.03768695518374443
1775033808390476800,7.304476806640625,9.874580383300781,0.028115665540099144,0.04307080805301666
1775033808441957400,7.355957275390625,9.872786521911621,0.031106693670153618,0.04426721855998039
1775033808493438200,7.407438232421875,9.869794845581055,0.02751746028661728,0.040677983313798904
1775033808544919000,7.4589189453125,9.870991706848145,0.029312077909708023,0.04127619042992592
1775033808596399900,7.51039990234375,9.871589660644531,0.029910283163189888,0.04666004329919815
1775033808647880700,7.561880615234375,9.866206169128418,0.028115665540099144,0.04007977992296219
1775033808699361500,7.613361572265625,9.872187614440918,0.030508488416671753,0.04247260093688965
1775033808750842400,7.66484228515625,9.868598937988281,0.026919255033135414,0.038285162299871445
1775033808802323000,7.716322998046875,9.873982429504395,0.02751746028661728,0.04247260093688965
1775033808853803800,7.7678037109375,9.870991706848145,0.029312077909708023,0.04127619042992592
1775033808905284600,7.81928466796875,9.868000984191895,0.029910283163189888,0.040677983313798904
1775033808956765400,7.870765380859375,9.871589660644531,0.03409772366285324,0.04366901144385338
1775033809008246300,7.922246337890625,9.867402076721191,0.030508488416671753,0.04247260093688965
1775033809059727000,7.97372705078125,9.870393753051758,0.02632104977965355,0.04187439754605293
1775033809111208000,8.0252080078125,9.873982429504395,0.028115665540099144,0.04127619042992592
1775033809162688800,8.076688720703125,9.872786521911621,0.025722842663526535,0.04187439754605293
1775033809214169300,8.12816943359375,9.866206169128418,0.02751746028661728,0.04546362906694412
1775033809265650200,8.179650146484375,9.869794845581055,0.0323031060397625,0.04366901144385338
1775033809317131000,8.231131103515626,9.868000984191895,0.03170489892363548,0.04187439754605293
1775033809368611800,8.28261181640625,9.871589660644531,0.028115665540099144,0.03888336941599846
1775033809420092700,8.3340927734375,9.868000984191895,0.03290131315588951,0.04007977992296219
1775033809471573500,8.385573486328125,9.869794845581055,0.02632104977965355,0.04486542567610741
1775033809523054000,8.43705419921875,9.871589660644531,0.02871387079358101,0.04127619042992592
1775033809574535000,8.488534912109374,9.875777244567871,0.029312077909708023,0.04127619042992592
1775033809626015700,8.540015625,9.873384475708008,0.030508488416671753,0.04486542567610741
1775033809677496600,8.59149658203125,9.870393753051758,0.03290131315588951,0.04247260093688965
1775033809728977400,8.642977294921875,9.878767967224121,0.026919255033135414,0.04127619042992592
1775033809780458000,8.6944580078125,9.875777244567871,0.0323031060397625,0.039481572806835175
1775033809831938800,8.745938720703125,9.869196891784668,0.026919255033135414,0.03768695518374443
1775033809883419600,8.797419677734375,9.868598937988281,0.030508488416671753,0.046061836183071136
1775033809934900500,8.848900390625,9.868598937988281,0.031106693670153618,0.04307080805301666
1775033809986381300,8.90038134765625,9.869196891784668,0.02871387079358101,0.04127619042992592
1775033810037862100,8.951862060546874,9.870393753051758,0.026919255033135414,0.04007977992296219
1775033810089342700,9.0033427734375,9.870393753051758,0.02512463741004467,0.04007977992296219
1775033810140823600,9.054823486328125,9.870991706848145,0.029312077909708023,0.04127619042992592
1775033810192304400,9.106304443359376,9.873982429504395,0.025722842663526535,0.03888336941599846
1775033810243785200,9.15778515625,9.868598937988281,0.02512463741004467,0.04366901144385338
1775033810295266000,9.20926611328125,9.869794845581055,0.02392822690308094,0.04426721855998039
1775033810346746600,9.26074658203125,9.869794845581055,0.02632104977965355,0.04127619042992592
1775033810398227500,9.3122275390625,9.864411354064941,0.029312077909708023,0.04426721855998039
1775033810449708300,9.363708251953126,9.866206169128418,0.029312077909708023,0.039481572806835175
1775033810501189000,9.415189208984375,9.866206169128418,0.03349951654672623,0.04247260093688965
1775033810552670000,9.466669921875,9.872187614440918,0.02632104977965355,0.039481572806835175
1775033810604150800,9.51815087890625,9.873384475708008,0.028115665540099144,0.04127619042992592
1775033810655631400,9.56963134765625,9.870991706848145,0.03170489892363548,0.03888336941599846
1775033810707112200,9.6211123046875,9.872187614440918,0.029910283163189888,0.04127619042992592
1775033810758593000,9.672593017578125,9.870393753051758,0.02871387079358101,0.04666004329919815
1775033810810073900,9.724073974609375,9.871589660644531,0.028115665540099144,0.04187439754605293
1775033810861554700,9.7755546875,9.872187614440918,0.025722842663526535,0.037088751792907715
1775033810913035300,9.82703515625,9.868598937988281,0.029312077909708023,0.04187439754605293
1775033810964516000,9.87851611328125,9.868000984191895,0.025722842663526535,0.038285162299871445
1775033811015997000,9.929996826171875,9.872187614440918,0.02512463741004467,0.04007977992296219
1775033811067477800,9.981477783203125,9.873384475708008,0.026919255033135414,0.03888336941599846
1775033811118958600,10.03295849609375,9.866804122924805,0.024526432156562805,0.040677983313798904
1775033811170439200,10.084439208984374,9.870991706848145,0.024526432156562805,0.04247260093688965
1775033811221920000,10.135919921875,9.867402076721191,0.028115665540099144,0.047258246690034866
1775033811273400800,10.18740087890625,9.869794845581055,0.024526432156562805,0.046061836183071136
1775033811324881700,10.238881591796876,9.867402076721191,0.029910283163189888,0.03888336941599846
1775033811376362200,10.2903623046875,9.869794845581055,0.026919255033135414,0.04127619042992592
1775033811427843000,10.341843017578125,9.870393753051758,0.03170489892363548,0.03888336941599846
1775033811479324000,10.393323974609375,9.868598937988281,0.02751746028661728,0.03768695518374443
1775033811530804700,10.4448046875,9.875777244567871,0.028115665540099144,0.04187439754605293
1775033811582285300,10.496285400390626,9.875777244567871,0.029910283163189888,0.04247260093688965
1775033811633766100,10.54776611328125,9.864411354064941,0.02751746028661728,0.04426721855998039
1775033811685247000,10.5992470703125,9.869794845581055,0.030508488416671753,0.039481572806835175
1775033811736727800,10.650727783203125,9.875179290771484,0.02751746028661728,0.04307080805301666
1775033811788208400,10.70220849609375,9.870991706848145,0.029312077909708023,0.04366901144385338
1775033811839689200,10.753689208984374,9.875179290771484,0.030508488416671753,0.039481572806835175
1775033811891170000,10.805170166015625,9.870393753051758,0.026919255033135414,0.04007977992296219
1775033811942651000,10.85665087890625,9.876974105834961,0.031106693670153618,0.04307080805301666
1775033811994131500,10.90813134765625,9.870393753051758,0.029312077909708023,0.04127619042992592
1775033812045612300,10.9596123046875,9.868000984191895,0.031106693670153618,0.03469592705368996
1775033812097093000,11.011093017578125,9.871589660644531,0.020937198773026466,0.039481572806835175
1775033812148574000,11.062573974609375,9.868000984191895,0.029910283163189888,0.03888336941599846
1775033812200054800,11.1140546875,9.870991706848145,0.02751746028661728,0.04247260093688965
1775033812251535400,11.165535400390626,9.870393753051758,0.030508488416671753,0.04486542567610741
1775033812303016200,11.21701611328125,9.871589660644531,0.025722842663526535,0.039481572806835175
1775033812354497000,11.2684970703125,9.875179290771484,0.02871387079358101,0.04247260093688965
1775033812405977600,11.3199775390625,9.866206169128418,0.024526432156562805,0.04247260093688965
1775033812457458400,11.37145849609375,9.865009307861328,0.025722842663526535,0.04486542567610741
1775033812508939300,11.422939208984374,9.866206169128418,0.030508488416671753,0.04366901144385338
1775033812560420000,11.474420166015625,9.869794845581055,0.029910283163189888,0.04366901144385338
1775033812611900700,11.525900634765625,9.870991706848145,0.029910283163189888,0.04307080805301666
1775033812663381500,11.577381591796875,9.872187614440918,0.029312077909708023,0.04127619042992592
1775033812714862300,11.6288623046875,9.869794845581055,0.0323031060397625,0.04187439754605293
1775033812766343200,11.68034326171875,9.870991706848145,0.028115665540099144,0.03768695518374443
1775033812817823700,11.73182373046875,9.867402076721191,0.030508488416671753,0.04127619042992592
1775033812869304600,11.7833046875,9.866804122924805,0.029312077909708023,0.04546362906694412
1775033812920785400,11.834785400390626,9.865608215332031,0.03170489892363548,0.04307080805301666
1775033812972266000,11.886265869140624,9.874580383300781,0.024526432156562805,0.04007977992296219
1775033813023746800,11.937746826171875,9.868598937988281,0.02632104977965355,0.04307080805301666
1775033813075227600,11.9892275390625,9.869794845581055,0.025722842663526535,0.04007977992296219
1775033813126708500,12.04070849609375,9.874580383300781,0.024526432156562805,0.03768695518374443
1775033813178189000,12.09218896484375,9.873982429504395,0.03170489892363548,0.0364905446767807
1775033813229670000,12.143669921875,9.870991706848145,0.030508488416671753,0.04127619042992592
1775033813281150700,12.195150634765625,9.869196891784668,0.026919255033135414,0.04426721855998039
1775033813332631300,12.24663134765625,9.871589660644531,0.02632104977965355,0.04426721855998039
1775033813384112000,12.298112060546876,9.874580383300781,0.026919255033135414,0.03888336941599846
1775033813435593000,12.349593017578124,9.869794845581055,0.028115665540099144,0.04247260093688965
1775033813487073500,12.401073486328125,9.873384475708008,0.024526432156562805,0.04007977992296219
1775033813538554400,12.452554443359375,9.869794845581055,0.026919255033135414,0.03768695518374443
1775033813590035200,12.50403515625,9.870991706848145,0.029312077909708023,0.03768695518374443
1775033813641515800,12.555515869140624,9.867402076721191,0.02512463741004467,0.04007977992296219
1775033813692996600,12.60699658203125,9.873982429504395,0.0323031060397625,0.04127619042992592
1775033813744477400,12.6584775390625,9.869196891784668,0.028115665540099144,0.04247260093688965
1775033813795958000,12.7099580078125,9.870393753051758,0.020937198773026466,0.04007977992296219
1775033813847438800,12.76143896484375,9.872187614440918,0.028115665540099144,0.040677983313798904
1775033813898919700,12.812919677734374,9.876974105834961,0.030508488416671753,0.03888336941599846
1775033813950400300,12.864400146484375,9.872786521911621,0.024526432156562805,0.04486542567610741
1775033814001881000,12.915881103515625,9.872786521911621,0.028115665540099144,0.04366901144385338
1775033814053362000,12.96736181640625,9.873982429504395,0.023330021649599075,0.04486542567610741
1775033814104842500,13.018842529296874,9.870393753051758,0.025722842663526535,0.03888336941599846
1775033814156323300,13.0703232421875,9.869794845581055,0.023330021649599075,0.03888336941599846
1775033814207804200,13.12180419921875,9.870991706848145,0.029910283163189888,0.04426721855998039
1775033814259284700,13.17328466796875,9.870991706848145,0.028115665540099144,0.04127619042992592
1775033814310765600,13.224765625,9.869794845581055,0.024526432156562805,0.04007977992296219
1775033814362246400,13.276246337890624,9.867402076721191,0.028115665540099144,0.04127619042992592
1775033814413727000,13.32772705078125,9.872187614440918,0.029910283163189888,0.04127619042992592
1775033814465207800,13.379207763671875,9.869794845581055,0.029312077909708023,0.038285162299871445
1775033814516688600,13.430688720703126,9.873982429504395,0.030508488416671753,0.04247260093688965
1775033814568169200,13.482169189453124,9.869794845581055,0.024526432156562805,0.03888336941599846
1775033814619650000,13.533650146484375,9.872187614440918,0.026919255033135414,0.04486542567610741
1775033814671131000,13.585130859375,9.874580383300781,0.02512463741004467,0.0364905446767807
1775033814722611500,13.636611572265625,9.868598937988281,0.02871387079358101,0.04127619042992592
1775033814774092300,13.68809228515625,9.874580383300781,0.025722842663526535,0.04007977992296219
1775033814825572900,13.73957275390625,9.870991706848145,0.025722842663526535,0.04366901144385338
1775033814877053700,13.7910537109375,9.874580383300781,0.024526432156562805,0.04366901144385338
1775033814928534500,13.842534423828125,9.872187614440918,0.029910283163189888,0.03888336941599846
1775033814980015000,13.89401513671875,9.870991706848145,0.029910283163189888,0.04007977992296219
1775033815031496000,13.945495849609374,9.872786521911621,0.024526432156562805,0.03768695518374443
1775033815082976800,13.996976806640625,9.869794845581055,0.026919255033135414,0.047258246690034866
1775033815134457300,14.048457275390625,9.874580383300781,0.026919255033135414,0.03768695518374443
1775033815185938200,14.099938232421875,9.874580383300781,0.030508488416671753,0.039481572806835175
1775033815237418800,14.151418701171876,9.871589660644531,0.03349951654672623,0.04307080805301666
1775033815288899600,14.202899658203124,9.869794845581055,0.028115665540099144,0.04546362906694412
1775033815340380400,14.25438037109375,9.875179290771484,0.02153540402650833,0.03349951654672623
1775033815391861000,14.305861083984375,9.875777244567871,0.029910283163189888,0.04007977992296219
1775033815443341800,14.357341796875,9.869196891784668,0.029312077909708023,0.04187439754605293
1775033815494822700,14.40882275390625,9.869794845581055,0.029312077909708023,0.046061836183071136
1775033815546303200,14.46030322265625,9.876375198364258,0.03170489892363548,0.04127619042992592
1775033815597784000,14.5117841796875,9.868598937988281,0.030508488416671753,0.04247260093688965
1775033815649264600,14.5632646484375,9.872786521911621,0.026919255033135414,0.04127619042992592
1775033815700745500,14.614745361328126,9.873982429504395,0.025722842663526535,0.04007977992296219
1775033815752226300,14.666226318359374,9.870393753051758,0.025722842663526535,0.04247260093688965
1775033815803707000,14.717706787109375,9.872187614440918,0.02632104977965355,0.03529413416981697
1775033815855187700,14.769187744140625,9.869794845581055,0.024526432156562805,0.04187439754605293
1775033815906668300,14.820668212890626,9.873384475708008,0.029312077909708023,0.04426721855998039
1775033815958149000,14.872149169921874,9.863813400268555,0.028115665540099144,0.046061836183071136
1775033816009630000,14.9236298828125,9.873982429504395,0.029910283163189888,0.04247260093688965
1775033816061110500,14.975110595703125,9.870393753051758,0.02751746028661728,0.04247260093688965
1775033816112591400,15.02659130859375,9.872187614440918,0.024526432156562805,0.04127619042992592
1775033816164072000,15.078072021484376,9.870991706848145,0.026919255033135414,0.04366901144385338
1775033816215552800,15.129552734375,9.876375198364258,0.023330021649599075,0.04187439754605293
1775033816267033600,15.18103369140625,9.870991706848145,0.038285162299871445,0.03170489892363548
1775033816318514200,15.23251416015625,9.866804122924805,0.02512463741004467,0.05024927482008934
1775033816369995000,15.2839951171875,9.872187614440918,0.014955141581594944,0.03290131315588951
1775033816421475600,15.3354755859375,9.879366874694824,0.018544375896453857,0.039481572806835175
1775033816472956400,15.386956298828125,9.876974105834961,0.03469592705368996,0.04127619042992592
1775033816524437200,15.438437255859375,9.872187614440918,0.029910283163189888,0.04247260093688965
1775033816575917800,15.489917724609375,9.873384475708008,0.029910283163189888,0.04127619042992592
1775033816627398700,15.541398681640626,9.879366874694824,0.028115665540099144,0.040677983313798904
1775033816678879200,15.592879150390624,9.872187614440918,0.031106693670153618,0.04247260093688965
1775033816730360000,15.644360107421875,9.874580383300781,0.037088751792907715,0.04247260093688965
1775033816781840600,15.695840576171875,9.873982429504395,0.029312077909708023,0.046061836183071136
1775033816833321500,15.747321533203126,9.873982429504395,0.02392822690308094,0.03768695518374443
1775033816884802300,15.79880224609375,9.875777244567871,0.02751746028661728,0.0364905446767807
1775033816936283000,15.850282958984375,9.871589660644531,0.0323031060397625,0.04187439754605293
1775033816987763700,15.901763671875,9.870393753051758,0.030508488416671753,0.04187439754605293
1775033817039244300,15.953244384765625,9.867402076721191,0.03290131315588951,0.038285162299871445
1775033817090725000,16.00472509765625,9.874580383300781,0.029312077909708023,0.04187439754605293
1775033817142205700,16.056205810546874,9.876974105834961,0.029312077909708023,0.04007977992296219
1775033817193686500,16.1076865234375,9.874580383300781,0.029312077909708023,0.04007977992296219
1775033817245167400,16.15916748046875,9.873384475708008,0.028115665540099144,0.04007977992296219
1775033817296648000,16.21064794921875,9.869794845581055,0.030508488416671753,0.03768695518374443
1775033817348128800,16.262128662109376,9.870991706848145,0.026919255033135414,0.04127619042992592
1775033817399609300,16.313609375,9.875777244567871,0.02512463741004467,0.04007977992296219
1775033817451090200,16.365090087890625,9.866206169128418,0.02871387079358101,0.039481572806835175
1775033817502570800,16.41657080078125,9.866804122924805,0.028115665540099144,0.04127619042992592
1775033817554051600,16.468051513671874,9.868598937988281,0.02751746028661728,0.04247260093688965
1775033817605532200,16.5195322265625,9.873982429504395,0.029312077909708023,0.04127619042992592
1775033817657013000,16.571012939453126,9.873384475708008,0.029910283163189888,0.04007977992296219
1775033817708493600,16.62249365234375,9.876974105834961,0.029910283163189888,0.04247260093688965
1775033817759974400,16.673974365234375,9.873384475708008,0.0323031060397625,0.04007977992296219
1775033817811455200,16.725455322265624,9.868598937988281,0.025722842663526535,0.04486542567610741
1775033817862935800,16.776935791015624,9.873982429504395,0.029312077909708023,0.04187439754605293
1775033817914416600,16.828416748046877,9.870991706848145,0.029312077909708023,0.03888336941599846
1775033817965897200,16.879897216796873,9.874580383300781,0.028115665540099144,0.04366901144385338
1775033818017378000,16.9313779296875,9.868598937988281,0.028115665540099144,0.04247260093688965
1775033818068858600,16.982858642578126,9.878170013427734,0.026919255033135414,0.04127619042992592
1775033818120339500,17.03433935546875,9.870393753051758,0.026919255033135414,0.04247260093688965
1775033818171820000,17.085820068359375,9.871589660644531,0.029312077909708023,0.04307080805301666
1775033818223300900,17.13730078125,9.869794845581055,0.028115665540099144,0.04007977992296219
1775033818274781400,17.188781494140624,9.867402076721191,0.030508488416671753,0.04187439754605293
1775033818326262300,17.24026220703125,9.865608215332031,0.02392822690308094,0.04366901144385338
1775033818377742800,17.291742919921877,9.867402076721191,0.028115665540099144,0.046061836183071136
1775033818429223700,17.3432236328125,9.872786521911621,0.026919255033135414,0.03888336941599846
1775033818480704500,17.39470458984375,9.875179290771484,0.02751746028661728,0.04127619042992592
1775033818532185000,17.44618505859375,9.868598937988281,0.030508488416671753,0.04426721855998039
1775033818583666000,17.497666015625,9.866206169128418,0.028115665540099144,0.0364905446767807
1775033818635146500,17.549146484375,9.875179290771484,0.029312077909708023,0.04007977992296219
1775033818686627300,17.60062744140625,9.869794845581055,0.026919255033135414,0.04366901144385338
1775033818738108000,17.65210791015625,9.873982429504395,0.030508488416671753,0.04127619042992592
1775033818789588700,17.703588623046876,9.872187614440918,0.030508488416671753,0.040677983313798904
1775033818841069300,17.7550693359375,9.872786521911621,0.030508488416671753,0.046061836183071136
1775033818892550100,17.806550048828125,9.874580383300781,0.024526432156562805,0.04247260093688965
1775033818944030700,17.85803076171875,9.871589660644531,0.02273181453347206,0.04247260093688965
1775033818995511600,17.909511474609374,9.872187614440918,0.02751746028661728,0.04127619042992592
1775033819046992100,17.9609921875,9.872187614440918,0.029312077909708023,0.04666004329919815
1775033819098473000,18.012472900390627,9.875179290771484,0.02632104977965355,0.04486542567610741
1775033819149953500,18.06395361328125,9.875777244567871,0.024526432156562805,0.04247260093688965
1775033819201434400,18.115434326171876,9.870991706848145,0.026919255033135414,0.039481572806835175
1775033819252915200,18.166915283203124,9.871589660644531,0.029910283163189888,0.046061836183071136
1775033819304395800,18.218395751953125,9.869794845581055,0.02751746028661728,0.04486542567610741
1775033819355876600,18.269876708984373,9.872187614440918,0.028115665540099144,0.038285162299871445
1775033819407357200,18.321357177734374,9.875179290771484,0.028115665540099144,0.038285162299871445
1775033819458838000,18.372838134765626,9.879366874694824,0.03290131315588951,0.04486542567610741
1775033819510318600,18.424318603515626,9.875777244567871,0.024526432156562805,0.038285162299871445
1775033819561799400,18.47579931640625,9.876974105834961,0.028115665540099144,0.04247260093688965
1775033819613280000,18.527280029296875,9.873384475708008,0.024526432156562805,0.040677983313798904
1775033819664760600,18.578760498046876,9.867402076721191,0.028115665540099144,0.03768695518374443
1775033819716241400,18.630241455078124,9.875777244567871,0.0323031060397625,0.04486542567610741
1775033819767722000,18.681721923828125,9.867402076721191,0.03170489892363548,0.04007977992296219
1775033819819202800,18.733202880859373,9.875179290771484,0.02871387079358101,0.03768695518374443
1775033819870683400,18.784683349609374,9.872187614440918,0.026919255033135414,0.03888336941599846
1775033819922164200,18.836164306640626,9.873982429504395,0.028115665540099144,0.04486542567610741
1775033819973644800,18.887644775390626,9.879366874694824,0.024526432156562805,0.040677983313798904
1775033820025125600,18.939125732421875,9.870393753051758,0.026919255033135414,0.040677983313798904
1775033820076606200,18.990606201171875,9.872187614440918,0.025722842663526535,0.04247260093688965
1775033820128086800,19.042086669921876,9.870991706848145,0.02751746028661728,0.038285162299871445
1775033820179567600,19.093567626953124,9.868000984191895,0.028115665540099144,0.038285162299871445
1775033820231048200,19.145048095703125,9.870393753051758,0.028115665540099144,0.040677983313798904
1775033820282529000,19.196529052734373,9.873384475708008,0.02632104977965355,0.04127619042992592
1775033820334009600,19.248009521484374,9.874580383300781,0.025722842663526535,0.04366901144385338
1775033820385490400,19.299490478515626,9.867402076721191,0.029312077909708023,0.040677983313798904
1775033820436971000,19.350970947265626,9.868000984191895,0.02871387079358101,0.04307080805301666
1775033820488451800,19.402451904296875,9.873982429504395,0.03170489892363548,0.03888336941599846
1775033820539932400,19.453932373046875,9.870991706848145,0.028115665540099144,0.04187439754605293
1775033820591413200,19.505413330078124,9.867402076721191,0.028115665540099144,0.04187439754605293
1775033820642893800,19.556893798828124,9.870393753051758,0.026919255033135414,0.04366901144385338
1775033820694374400,19.60837451171875,9.869794845581055,0.029312077909708023,0.03888336941599846
1775033820745855200,19.659855224609377,9.870991706848145,0.025722842663526535,0.038285162299871445
1775033820797335800,19.711335693359374,9.870393753051758,0.026919255033135414,0.04546362906694412
1775033820848816600,19.762816650390626,9.868598937988281,0.030508488416671753,0.046061836183071136
1775033820900297200,19.814297119140626,9.872187614440918,0.026919255033135414,0.04307080805301666
1775033820951778000,19.865778076171875,9.870393753051758,0.0323031060397625,0.039481572806835175
1775033821003258600,19.917258544921875,9.869794845581055,0.029312077909708023,0.04187439754605293
1775033821054739200,19.9687392578125,9.873384475708008,0.02871387079358101,0.038285162299871445
1775033821106220000,20.020219970703124,9.868000984191895,0.02751746028661728,0.04187439754605293
1775033821157700600,20.07170068359375,9.868598937988281,0.0323031060397625,0.040677983313798904
1775033821209181400,20.123181396484377,9.865608215332031,0.026919255033135414,0.04187439754605293
1775033821260662000,20.174662109375,9.876375198364258,0.029312077909708023,0.040677983313798904
1775033821312142800,20.226142822265626,9.873384475708008,0.02871387079358101,0.03888336941599846
1775033821363623400,20.27762353515625,9.879366874694824,0.024526432156562805,0.03888336941599846
1775033821415104000,20.32910400390625,9.868598937988281,0.02632104977965355,0.048454657196998596
1775033821466584800,20.380584716796875,9.874580383300781,0.029312077909708023,0.04007977992296219
1775033821518065400,20.4320654296875,9.870393753051758,0.03290131315588951,0.04247260093688965
1775033821569546200,20.483546142578124,9.870991706848145,0.02632104977965355,0.03888336941599846
1775033821621026800,20.53502685546875,9.865608215332031,0.03170489892363548,0.039481572806835175
1775033821672507600,20.586507568359377,9.869794845581055,0.025722842663526535,0.04247260093688965
1775033821723988200,20.63798828125,9.875777244567871,0.028115665540099144,0.04187439754605293
1775033821775468800,20.68946875,9.870393753051758,0.03290131315588951,0.04007977992296219
1775033821826949600,20.74094970703125,9.870991706848145,0.030508488416671753,0.04127619042992592
1775033821878430200,20.79243017578125,9.875179290771484,0.029312077909708023,0.03888336941599846
1775033821929910800,20.843910888671875,9.872187614440918,0.03290131315588951,0.04366901144385338
1775033821981391600,20.8953916015625,9.872786521911621,0.029312077909708023,0.035892341285943985
1775033822032872200,20.9468720703125,9.870991706848145,0.02871387079358101,0.04007977992296219
1775033822084352800,20.998352783203124,9.869196891784668,0.02871387079358101,0.04187439754605293
1775033822135833600,21.04983349609375,9.868598937988281,0.028115665540099144,0.0364905446767807
1775033822187314200,21.101314208984373,9.874580383300781,0.026919255033135414,0.04426721855998039
1775033822238795000,21.152794921875,9.872187614440918,0.028115665540099144,0.04486542567610741
1775033822290275600,21.204275634765626,9.871589660644531,0.029312077909708023,0.04426721855998039
1775033822341756200,21.255756103515626,9.867402076721191,0.030508488416671753,0.04007977992296219
1775033822393237000,21.307237060546875,9.873384475708008,0.029312077909708023,0.04007977992296219
1775033822444717600,21.358717529296875,9.872187614440918,0.02632104977965355,0.04666004329919815
1775033822496198400,21.410198486328124,9.868598937988281,0.026919255033135414,0.04187439754605293
1775033822547679000,21.461678955078124,9.873384475708008,0.03170489892363548,0.03888336941599846
1775033822599159600,21.51315966796875,9.870393753051758,0.028115665540099144,0.04187439754605293
1775033822650640400,21.564640380859377,9.870991706848145,0.03290131315588951,0.04127619042992592
1775033822702121000,21.616120849609374,9.872786521911621,0.02871387079358101,0.04426721855998039
1775033822753601800,21.667601806640626,9.868000984191895,0.029312077909708023,0.038285162299871445
1775033822805082400,21.719082275390626,9.869794845581055,0.029312077909708023,0.03768695518374443
1775033822856563000,21.77056298828125,9.875777244567871,0.0323031060397625,0.04127619042992592
1775033822908043800,21.822043701171875,9.868598937988281,0.02512463741004467,0.04127619042992592
1775033822959524400,21.8735244140625,9.876375198364258,0.030508488416671753,0.039481572806835175
1775033823011005200,21.925005126953124,9.863813400268555,0.025722842663526535,0.03768695518374443
1775033823062485800,21.97648583984375,9.876974105834961,0.026919255033135414,0.039481572806835175
1775033823113966300,22.02796630859375,9.870393753051758,0.02632104977965355,0.04486542567610741
1775033823165447200,22.079447265625,9.869794845581055,0.029312077909708023,0.04007977992296219
1775033823216927700,22.130927734375,9.870991706848145,0.0323031060397625,0.03349951654672623
1775033823268408300,22.182408203125,9.873982429504395,0.030508488416671753,0.037088751792907715
1775033823319889200,22.23388916015625,9.873384475708008,0.031106693670153618,0.04546362906694412
1775033823371369700,22.28536962890625,9.874580383300781,0.029910283163189888,0.04007977992296219
1775033823422850600,22.3368505859375,9.870991706848145,0.029312077909708023,0.039481572806835175
1775033823474331100,22.3883310546875,9.875777244567871,0.02751746028661728,0.04247260093688965
1775033823525811700,22.439811767578124,9.871589660644531,0.02871387079358101,0.03888336941599846
1775033823577292500,22.49129248046875,9.875777244567871,0.031106693670153618,0.04127619042992592
1775033823628773000,22.542773193359373,9.877572059631348,0.030508488416671753,0.04307080805301666
1775033823680253700,22.594253662109374,9.873384475708008,0.025722842663526535,0.04486542567610741
1775033823731734500,22.645734619140626,9.870991706848145,0.030508488416671753,0.04007977992296219
1775033823783215000,22.697215087890626,9.870393753051758,0.030508488416671753,0.04007977992296219
1775033823834695700,22.74869580078125,9.867402076721191,0.028115665540099144,0.04127619042992592
1775033823886176500,22.800176513671875,9.871589660644531,0.028115665540099144,0.039481572806835175
1775033823937657000,22.851656982421876,9.868598937988281,0.028115665540099144,0.04366901144385338
1775033823989137700,22.9031376953125,9.871589660644531,0.030508488416671753,0.04366901144385338
1775033824040618500,22.954618408203125,9.868598937988281,0.03170489892363548,0.04247260093688965
1775033824092099000,23.00609912109375,9.872187614440918,0.03170489892363548,0.040677983313798904
1775033824143579600,23.05757958984375,9.874580383300781,0.029910283163189888,0.04187439754605293
1775033824195060500,23.109060546875,9.869196891784668,0.03349951654672623,0.04247260093688965
1775033824246541000,23.160541015625,9.873384475708008,0.030508488416671753,0.04187439754605293
1775033824298022000,23.21202197265625,9.875179290771484,0.02512463741004467,0.040677983313798904
1775033824349502500,23.26350244140625,9.864411354064941,0.02751746028661728,0.046061836183071136
1775033824400983000,23.314983154296876,9.875777244567871,0.031106693670153618,0.038285162299871445
1775033824452463900,23.3664638671875,9.875179290771484,0.031106693670153618,0.0364905446767807
1775033824503944400,23.4179443359375,9.870991706848145,0.028115665540099144,0.04127619042992592
1775033824555425000,23.469425048828125,9.873384475708008,0.028115665540099144,0.04187439754605293
1775033824606905900,23.52090576171875,9.870991706848145,0.028115665540099144,0.04127619042992592
1775033824658386400,23.572386474609374,9.870991706848145,0.031106693670153618,0.04187439754605293
1775033824709867000,23.623866943359374,9.876974105834961,0.028115665540099144,0.04366901144385338
1775033824761347800,23.675347900390626,9.873384475708008,0.030508488416671753,0.04187439754605293
1775033824812828400,23.726828369140627,9.874580383300781,0.030508488416671753,0.04486542567610741
1775033824864309000,23.77830908203125,9.866206169128418,0.031106693670153618,0.04307080805301666
1775033824915789800,23.829789794921876,9.870991706848145,0.03170489892363548,0.04486542567610741
1775033824967270400,23.8812705078125,9.870393753051758,0.02273181453347206,0.039481572806835175
1775033825018751000,23.9327509765625,9.871589660644531,0.026919255033135414,0.03768695518374443
1775033825070231800,23.984231689453125,9.874580383300781,0.031106693670153618,0.04486542567610741
1775033825121712400,24.03571240234375,9.869794845581055,0.02871387079358101,0.03888336941599846
1775033825173193000,24.08719287109375,9.872786521911621,0.025722842663526535,0.03888336941599846
1775033825224673800,24.138673828125,9.873384475708008,0.035892341285943985,0.04247260093688965
1775033825276154400,24.190154296875,9.878170013427734,0.020338991656899452,0.04127619042992592
1775033825327635000,24.241635009765623,9.871589660644531,0.03170489892363548,0.04247260093688965
1775033825379115800,24.29311572265625,9.870991706848145,0.023330021649599075,0.03888336941599846
1775033825430596400,24.344596435546876,9.876974105834961,0.03170489892363548,0.04307080805301666
1775033825482077000,24.396076904296876,9.878767967224121,0.030508488416671753,0.04307080805301666
1775033825533557500,24.4475576171875,9.870393753051758,0.026919255033135414,0.04247260093688965
1775033825585038300,24.499038330078125,9.869794845581055,0.025722842663526535,0.04007977992296219
1775033825636519000,24.550518798828126,9.874580383300781,0.03170489892363548,0.037088751792907715
1775033825687999500,24.60199951171875,9.875777244567871,0.029312077909708023,0.03529413416981697
1775033825739480000,24.65347998046875,9.872786521911621,0.03170489892363548,0.04247260093688965
1775033825790961000,24.7049609375,9.870991706848145,0.028115665540099144,0.04127619042992592
1775033825842441500,24.75644140625,9.865608215332031,0.025722842663526535,0.04247260093688965
1775033825893922000,24.807922119140624,9.871589660644531,0.026919255033135414,0.04007977992296219
1775033825945403000,24.85940283203125,9.872187614440918,0.03349951654672623,0.046061836183071136
1775033825996883500,24.910883544921877,9.876375198364258,0.029910283163189888,0.04307080805301666
1775033826048364000,24.962364013671873,9.868598937988281,0.028115665540099144,0.04187439754605293
1775033826099844900,25.013844970703126,9.869794845581055,0.023330021649599075,0.03768695518374443
1775033826151325400,25.065325439453126,9.873384475708008,0.023330021649599075,0.03888336941599846
1775033826202806000,25.116805908203126,9.872786521911621,0.02632104977965355,0.040677983313798904
1775033826254286600,25.16828662109375,9.874580383300781,0.02632104977965355,0.03768695518374443
1775033826305767400,25.219767333984375,9.867402076721191,0.029910283163189888,0.038285162299871445
1775033826357248000,25.271248046875,9.871589660644531,0.024526432156562805,0.04247260093688965
1775033826408728600,25.322728515625,9.872187614440918,0.03170489892363548,0.04127619042992592
1775033826460209200,25.374209228515625,9.871589660644531,0.028115665540099144,0.04127619042992592
1775033826511690000,25.42568994140625,9.872187614440918,0.029910283163189888,0.04007977992296219
1775033826563170600,25.477170654296874,9.868000984191895,0.029910283163189888,0.04307080805301666
1775033826614651100,25.528651123046874,9.868598937988281,0.03170489892363548,0.04486542567610741
1775033826666131700,25.580131591796874,9.868598937988281,0.02751746028661728,0.03888336941599846
1775033826717612500,25.631612548828127,9.880562782287598,0.030508488416671753,0.04127619042992592
1775033826769093000,25.683093017578123,9.863214492797852,0.02751746028661728,0.04366901144385338
1775033826820573700,25.73457373046875,9.873384475708008,0.03290131315588951,0.04307080805301666
1775033826872054300,25.78605419921875,9.874580383300781,0.02751746028661728,0.04247260093688965
1775033826923535000,25.83753515625,9.870393753051758,0.0323031060397625,0.04007977992296219
1775033826975015700,25.889015625,9.875777244567871,0.03290131315588951,0.04247260093688965
1775033827026496300,25.940496337890625,9.870393753051758,0.02512463741004467,0.04247260093688965
1775033827077976800,25.991976806640626,9.874580383300781,0.028115665540099144,0.04247260093688965
1775033827129457700,26.043457763671874,9.872786521911621,0.026919255033135414,0.0364905446767807
1775033827180938200,26.094938232421875,9.869794845581055,0.029910283163189888,0.04486542567610741
1775033827232418800,26.146418701171875,9.874580383300781,0.029312077909708023,0.04366901144385338
1775033827283899400,26.1978994140625,9.875777244567871,0.02632104977965355,0.04486542567610741
1775033827335380200,26.249380126953124,9.869794845581055,0.03529413416981697,0.047258246690034866
1775033827386860800,26.30086083984375,9.873982429504395,0.030508488416671753,0.04366901144385338
1775033827438341400,26.35234130859375,9.867402076721191,0.024526432156562805,0.03469592705368996
1775033827489822000,26.403822021484373,9.875777244567871,0.02632104977965355,0.03768695518374443
1775033827541302800,26.455302734375,9.866206169128418,0.02871387079358101,0.04127619042992592
1775033827592783400,26.506783447265626,9.867402076721191,0.028115665540099144,0.04127619042992592
1775033827644264000,26.558263916015626,9.873384475708008,0.028115665540099144,0.04127619042992592
1775033827695744500,26.60974462890625,9.873384475708008,0.026919255033135414,0.04007977992296219
1775033827747225300,26.661225341796875,9.874580383300781,0.030508488416671753,0.040677983313798904
1775033827798706000,26.712705810546876,9.871589660644531,0.031106693670153618,0.046061836183071136
1775033827850186500,26.7641865234375,9.872187614440918,0.025722842663526535,0.04247260093688965
1775033827901667000,26.8156669921875,9.872187614440918,0.02512463741004467,0.039481572806835175
1775033827953148000,26.86714794921875,9.871589660644531,0.029312077909708023,0.039481572806835175
1775033828004628500,26.91862841796875,9.867402076721191,0.03170489892363548,0.04366901144385338
1775033828056109000,26.970109130859374,9.873384475708008,0.03170489892363548,0.04426721855998039
1775033828107589600,27.021589599609374,9.865009307861328,0.031106693670153618,0.04546362906694412
1775033828159070200,27.0730703125,9.868598937988281,0.030508488416671753,0.04007977992296219
1775033828210550800,27.12455078125,9.870991706848145,0.031106693670153618,0.04366901144385338
1775033828262031600,27.176031494140624,9.872786521911621,0.02632104977965355,0.04187439754605293
1775033828313512200,27.22751220703125,9.867402076721191,0.031106693670153618,0.04247260093688965
1775033828364992800,27.27899267578125,9.881759643554688,0.029312077909708023,0.03888336941599846
1775033828416473300,27.330473388671876,9.869794845581055,0.03170489892363548,0.047258246690034866
1775033828467954200,27.3819541015625,9.874580383300781,0.031106693670153618,0.038285162299871445
1775033828519434800,27.433434814453125,9.876375198364258,0.025722842663526535,0.04486542567610741
1775033828570915300,27.484915283203126,9.870991706848145,0.02871387079358101,0.03768695518374443
1775033828622396000,27.53639599609375,9.873384475708008,0.02871387079358101,0.0364905446767807
1775033828673876700,27.587876708984375,9.870393753051758,0.028115665540099144,0.040677983313798904
1775033828725357300,27.639357421875,9.871589660644531,0.025722842663526535,0.04366901144385338
1775033828776838000,27.690837890625,9.879366874694824,0.029312077909708023,0.04366901144385338
1775033828828318500,27.742318359375,9.863813400268555,0.03290131315588951,0.04187439754605293
1775033828879799000,27.793799072265625,9.874580383300781,0.029910283163189888,0.037088751792907715
1775033828931280000,27.84527978515625,9.869794845581055,0.026919255033135414,0.04486542567610741
1775033828982760400,27.896760498046874,9.874580383300781,0.0323031060397625,0.04426721855998039
1775033829034241000,27.948240966796874,9.874580383300781,0.02871387079358101,0.038285162299871445
1775033829085721600,27.9997216796875,9.872786521911621,0.030508488416671753,0.04426721855998039
1775033829137202400,28.051202392578126,9.873384475708008,0.028115665540099144,0.03888336941599846
1775033829188683000,28.10268310546875,9.873384475708008,0.030508488416671753,0.04366901144385338
1775033829240163600,28.15416357421875,9.872187614440918,0.02751746028661728,0.04486542567610741
1775033829291644200,28.20564404296875,9.873982429504395,0.026919255033135414,0.046061836183071136
1775033829343124700,28.257124755859376,9.870991706848145,0.024526432156562805,0.04187439754605293
1775033829394605600,28.30860546875,9.870991706848145,0.028115665540099144,0.04247260093688965
1775033829446086100,28.360086181640625,9.865009307861328,0.03409772366285324,0.04486542567610741
1775033829497566700,28.411566650390625,9.872786521911621,0.029312077909708023,0.04007977992296219
1775033829549047300,28.46304736328125,9.872187614440918,0.028115665540099144,0.04127619042992592
1775033829600528000,28.51452783203125,9.879366874694824,0.030508488416671753,0.04247260093688965
1775033829652008400,28.566008544921875,9.873384475708008,0.028115665540099144,0.05144568532705307
1775033829703489300,28.6174892578125,9.870991706848145,0.02751746028661728,0.047258246690034866
1775033829754969900,28.668969970703124,9.872187614440918,0.024526432156562805,0.04666004329919815
1775033829806450400,28.720450439453124,9.871589660644531,0.03170489892363548,0.04486542567610741
1775033829857931000,28.771930908203124,9.872187614440918,0.02751746028661728,0.046061836183071136
1775033829909411800,28.823411865234377,9.868000984191895,0.030508488416671753,0.04666004329919815
1775033829960892400,28.874892333984373,9.866804122924805,0.03529413416981697,0.04486542567610741
1775033830012373000,28.926373046875,9.877572059631348,0.025722842663526535,0.04007977992296219
1775033830063853600,28.977853515625,9.862616539001465,0.029910283163189888,0.04546362906694412
1775033830115334100,29.029334228515626,9.874580383300781,0.025722842663526535,0.04127619042992592
1775033830166814700,29.080814697265627,9.869794845581055,0.03409772366285324,0.040677983313798904
1775033830218295600,29.132295654296875,9.872187614440918,0.025722842663526535,0.04247260093688965
1775033830269776100,29.183776123046876,9.870393753051758,0.024526432156562805,0.04426721855998039
1775033830321256700,29.235256591796876,9.866804122924805,0.024526432156562805,0.04366901144385338
1775033830372737300,29.2867373046875,9.872187614440918,0.026919255033135414,0.03888336941599846
1775033830424218000,29.338218017578125,9.868598937988281,0.03170489892363548,0.04307080805301666
1775033830475698700,29.38969873046875,9.871589660644531,0.030508488416671753,0.049651071429252625
1775033830527179300,29.44117919921875,9.876974105834961,0.028115665540099144,0.04247260093688965
1775033830578659800,29.492659912109374,9.879366874694824,0.02751746028661728,0.04127619042992592
1775033830630140400,29.544140380859375,9.871589660644531,0.030508488416671753,0.04785645380616188
1775033830681621000,29.59562109375,9.871589660644531,0.02632104977965355,0.04905286431312561
1775033830733101600,29.6471015625,9.868598937988281,0.028115665540099144,0.04187439754605293
1775033830784582400,29.69858251953125,9.870393753051758,0.029910283163189888,0.04127619042992592
1775033830836063000,29.75006298828125,9.876974105834961,0.03469592705368996,0.04007977992296219
1775033830887543600,29.80154345703125,9.870991706848145,0.026919255033135414,0.04127619042992592
1775033830939024100,29.853024169921873,9.874580383300781,0.02751746028661728,0.039481572806835175
1775033830990504700,29.904504638671874,9.872187614440918,0.029910283163189888,0.040677983313798904
1775033831041985500,29.955985595703126,9.866804122924805,0.03170489892363548,0.04127619042992592
1775033831093466000,30.007466064453126,9.869794845581055,0.0323031060397625,0.039481572806835175
1775033831144946700,30.05894677734375,9.868000984191895,0.029312077909708023,0.04366901144385338
1775033831196427300,30.11042724609375,9.871589660644531,0.026919255033135414,0.04127619042992592
1775033831247907800,30.161907958984376,9.874580383300781,0.03170489892363548,0.04546362906694412
1775033831299388400,30.213388427734376,9.872786521911621,0.029910283163189888,0.04187439754605293
1775033831350869200,30.264869140625,9.876974105834961,0.02871387079358101,0.04426721855998039
1775033831402349800,30.316349853515625,9.873384475708008,0.02871387079358101,0.04247260093688965
1775033831453830400,30.367830322265625,9.872187614440918,0.03170489892363548,0.04666004329919815
1775033831505311000,30.41931103515625,9.875179290771484,0.029312077909708023,0.04247260093688965
1775033831556791600,30.47079150390625,9.869794845581055,0.028115665540099144,0.04366901144385338
1775033831608272100,30.522272216796875,9.876375198364258,0.026919255033135414,0.04007977992296219
1775033831659753000,30.5737529296875,9.868598937988281,0.026919255033135414,0.04247260093688965
1775033831711233500,30.625233642578124,9.869794845581055,0.02871387079358101,0.04007977992296219
1775033831762714000,30.676714111328124,9.867402076721191,0.026919255033135414,0.04486542567610741
1775033831814194700,30.728194580078124,9.869794845581055,0.029312077909708023,0.04187439754605293
1775033831865675300,30.77967529296875,9.876375198364258,0.028115665540099144,0.04247260093688965
1775033831917155800,30.83115576171875,9.870991706848145,0.028115665540099144,0.04546362906694412
1775033831968636400,30.882636474609374,9.874580383300781,0.029312077909708023,0.04007977992296219
1775033832020117200,30.9341171875,9.872786521911621,0.02871387079358101,0.039481572806835175
1775033832071597800,30.985597900390626,9.869794845581055,0.028115665540099144,0.04127619042992592
1775033832123078400,31.037078369140627,9.870393753051758,0.031106693670153618,0.04007977992296219
1775033832174559000,31.08855908203125,9.875179290771484,0.02751746028661728,0.04127619042992592
1775033832226039600,31.14003955078125,9.868000984191895,0.030508488416671753,0.04247260093688965
1775033832277520100,31.19152001953125,9.872187614440918,0.025722842663526535,0.04666004329919815
1775033832329000700,31.243000732421876,9.868598937988281,0.025722842663526535,0.03768695518374443
1775033832380481500,31.2944814453125,9.869794845581055,0.02512463741004467,0.040677983313798904
1775033832431962000,31.345962158203125,9.872187614440918,0.029312077909708023,0.04366901144385338
1775033832483442700,31.397442626953126,9.877572059631348,0.029312077909708023,0.04127619042992592
1775033832534923300,31.44892333984375,9.875179290771484,0.031106693670153618,0.04007977992296219
1775033832586403800,31.50040380859375,9.873982429504395,0.0323031060397625,0.03888336941599846
1775033832637884400,31.551884521484375,9.869794845581055,0.029312077909708023,0.04247260093688965
1775033832689365000,31.603364990234375,9.872786521911621,0.028115665540099144,0.04187439754605293
1775033832740845800,31.654845703125,9.869794845581055,0.024526432156562805,0.04247260093688965
1775033832792326400,31.706326416015624,9.870393753051758,0.026919255033135414,0.04007977992296219
1775033832843807000,31.757806884765625,9.863813400268555,0.03170489892363548,0.04247260093688965
1775033832895287600,31.80928759765625,9.880562782287598,0.029312077909708023,0.04127619042992592
1775033832946768100,31.86076806640625,9.870991706848145,0.029910283163189888,0.039481572806835175
1775033832998248700,31.912248779296874,9.869794845581055,0.030508488416671753,0.04307080805301666
1775033833049729300,31.963729248046874,9.868598937988281,0.028115665540099144,0.04247260093688965
1775033833101209900,32.0152099609375,9.872187614440918,0.02512463741004467,0.04187439754605293
1775033833152690400,32.0666904296875,9.873384475708008,0.02632104977965355,0.04127619042992592
1775033833204171300,32.11817114257813,9.876974105834961,0.031106693670153618,0.03888336941599846
1775033833255651800,32.16965185546875,9.874580383300781,0.03290131315588951,0.04247260093688965
1775033833307132400,32.22113232421875,9.876974105834961,0.028115665540099144,0.03888336941599846
1775033833358613000,32.27261303710937,9.873384475708008,0.025722842663526535,0.04247260093688965
1775033833410093600,32.32409350585937,9.874580383300781,0.0323031060397625,0.039481572806835175
1775033833461574100,32.37557421875,9.872786521911621,0.026919255033135414,0.04127619042992592
1775033833513054700,32.4270546875,9.869794845581055,0.031106693670153618,0.046061836183071136
1775033833564535300,32.478535400390626,9.880562782287598,0.02392822690308094,0.04666004329919815
1775033833616016000,32.53001586914063,9.869794845581055,0.028115665540099144,0.04366901144385338
1775033833667496700,32.58149658203125,9.873384475708008,0.028115665540099144,0.04426721855998039
1775033833718977300,32.63297729492187,9.873982429504395,0.02632104977965355,0.04486542567610741
1775033833770457900,32.68445776367187,9.873982429504395,0.024526432156562805,0.046061836183071136
1775033833821938400,32.7359384765625,9.869794845581055,0.03170489892363548,0.046061836183071136
1775033833873419000,32.7874189453125,9.870991706848145,0.02751746028661728,0.046061836183071136
1775033833924899600,32.838899658203125,9.870393753051758,0.029312077909708023,0.04127619042992592
1775033833976380200,32.890380126953126,9.870393753051758,0.026919255033135414,0.04247260093688965
1775033834027860700,32.94186083984375,9.875179290771484,0.029312077909708023,0.047258246690034866
1775033834079341300,32.99334130859375,9.870991706848145,0.02871387079358101,0.04486542567610741
1775033834130822000,33.04482177734375,9.873982429504395,0.02512463741004467,0.040677983313798904
1775033834182302500,33.09630249023437,9.874580383300781,0.030508488416671753,0.04366901144385338
1775033834233783300,33.147783203125,9.870991706848145,0.029910283163189888,0.04366901144385338
1775033834285264000,33.199263916015624,9.879964828491211,0.029910283163189888,0.04247260093688965
1775033834336744400,33.250744384765625,9.869196891784668,0.028115665540099144,0.04366901144385338
1775033834388225000,33.30222509765625,9.872786521911621,0.029910283163189888,0.04307080805301666
1775033834439705600,33.35370556640625,9.878170013427734,0.030508488416671753,0.04666004329919815
1775033834491186200,33.40518627929688,9.867402076721191,0.028115665540099144,0.04366901144385338
1775033834542666800,33.45666674804688,9.872786521911621,0.028115665540099144,0.04187439754605293
1775033834594147300,33.50814721679688,9.870991706848145,0.03290131315588951,0.04307080805301666
1775033834645628000,33.5596279296875,9.871589660644531,0.02751746028661728,0.04426721855998039
1775033834697108700,33.611108642578124,9.868598937988281,0.03349951654672623,0.04546362906694412
1775033834748589300,33.66258935546875,9.872187614440918,0.029910283163189888,0.04127619042992592
1775033834800070000,33.71406982421875,9.870991706848145,0.023330021649599075,0.046061836183071136
1775033834851550500,33.76555053710938,9.866206169128418,0.0323031060397625,0.047258246690034866
1775033834903031000,33.81703100585938,9.869196891784668,0.030508488416671753,0.04127619042992592
1775033834954511600,33.86851171875,9.872187614440918,0.02512463741004467,0.04247260093688965
1775033835005992200,33.9199921875,9.875777244567871,0.02751746028661728,0.04307080805301666
1775033835057472800,33.97147265625,9.865608215332031,0.028115665540099144,0.04486542567610741
1775033835108953300,34.02295336914062,9.868598937988281,0.02751746028661728,0.04366901144385338
1775033835160434000,34.07443383789062,9.875777244567871,0.030508488416671753,0.04366901144385338
1775033835211914500,34.12591455078125,9.873982429504395,0.029312077909708023,0.04307080805301666
1775033835263395000,34.17739501953125,9.867402076721191,0.02632104977965355,0.04666004329919815
1775033835314876000,34.2288759765625,9.871589660644531,0.026919255033135414,0.047258246690034866
1775033835366356500,34.2803564453125,9.869794845581055,0.02871387079358101,0.04187439754605293
1775033835417837000,34.33183715820312,9.867402076721191,0.03170489892363548,0.04127619042992592
1775033835469317600,34.38331762695312,9.870991706848145,0.02751746028661728,0.04426721855998039
1775033835520798200,34.43479809570312,9.872187614440918,0.024526432156562805,0.04546362906694412
1775033835572278800,34.48627880859375,9.873384475708008,0.028115665540099144,0.046061836183071136
1775033835623759400,34.53775927734375,9.870393753051758,0.026919255033135414,0.046061836183071136
1775033835675240000,34.589239990234375,9.872187614440918,0.03290131315588951,0.04366901144385338
1775033835726720500,34.640720458984376,9.874580383300781,0.02632104977965355,0.03768695518374443
1775033835778201000,34.692201171875,9.873982429504395,0.02392822690308094,0.04247260093688965
1775033835829681700,34.743681640625,9.869794845581055,0.02751746028661728,0.040677983313798904
1775033835881162200,34.79516235351562,9.872786521911621,0.03290131315588951,0.04366901144385338
1775033835932642800,34.84664282226562,9.874580383300781,0.03349951654672623,0.05024927482008934
1775033835984123600,34.89812353515625,9.870991706848145,0.028115665540099144,0.04486542567610741
1775033836035604200,34.949604248046874,9.871589660644531,0.028115665540099144,0.046061836183071136
1775033836087084800,35.001084716796875,9.873384475708008,0.03170489892363548,0.040677983313798904
1775033836138565400,35.0525654296875,9.870991706848145,0.030508488416671753,0.046061836183071136
1775033836190046000,35.1040458984375,9.870991706848145,0.03170489892363548,0.04486542567610741
1775033836241526500,35.15552661132813,9.869794845581055,0.030508488416671753,0.03888336941599846
1775033836293007000,35.20700708007813,9.878170013427734,0.029312077909708023,0.04307080805301666
1775033836344487700,35.25848779296875,9.872786521911621,0.03290131315588951,0.04366901144385338
1775033836395968300,35.30996826171875,9.873384475708008,0.029910283163189888,0.04366901144385338
1775033836447448800,35.36144873046875,9.873384475708008,0.026919255033135414,0.04127619042992592
1775033836498929400,35.412929443359374,9.873982429504395,0.031106693670153618,0.04307080805301666
1775033836550410200,35.46441015625,9.869196891784668,0.029312077909708023,0.04187439754605293
1775033836601890800,35.51589086914063,9.870991706848145,0.026919255033135414,0.04307080805301666
1775033836653371400,35.56737133789063,9.873982429504395,0.026919255033135414,0.047258246690034866
1775033836704852000,35.61885205078125,9.868598937988281,0.030508488416671753,0.04426721855998039
1775033836756332500,35.67033251953125,9.874580383300781,0.03290131315588951,0.04905286431312561
1775033836807813000,35.72181323242187,9.877572059631348,0.029910283163189888,0.04426721855998039
1775033836859293700,35.77329370117187,9.872187614440918,0.029312077909708023,0.04546362906694412
1775033836910774300,35.824774169921874,9.865608215332031,0.029312077909708023,0.04486542567610741
1775033836962254800,35.8762548828125,9.868000984191895,0.031106693670153618,0.047258246690034866
1775033837013735400,35.9277353515625,9.866804122924805,0.02871387079358101,0.04486542567610741
1775033837065216000,35.97921606445313,9.866206169128418,0.02632104977965355,0.04007977992296219
1775033837116696600,36.03069653320313,9.872786521911621,0.031106693670153618,0.04247260093688965
1775033837168177200,36.08217724609375,9.875179290771484,0.025722842663526535,0.04247260093688965
1775033837219657700,36.13365771484375,9.869196891784668,0.030508488416671753,0.04247260093688965
1775033837271138300,36.18513818359375,9.873384475708008,0.029312077909708023,0.04366901144385338
1775033837322619000,36.23661889648437,9.877572059631348,0.029312077909708023,0.046061836183071136
1775033837374099500,36.28809936523437,9.874580383300781,0.026919255033135414,0.04546362906694412
1775033837425580300,36.339580322265626,9.870991706848145,0.025722842663526535,0.04546362906694412
1775033837477060900,36.391060791015626,9.869794845581055,0.026919255033135414,0.046061836183071136
1775033837528541400,36.44254150390625,9.870991706848145,0.029910283163189888,0.04127619042992592
1775033837580022000,36.49402197265625,9.868598937988281,0.030508488416671753,0.04366901144385338
1775033837631502600,36.54550268554687,9.869196891784668,0.029910283163189888,0.04247260093688965
1775033837682983200,36.59698315429687,9.872187614440918,0.02871387079358101,0.04366901144385338
1775033837734463700,36.64846362304687,9.869196891784668,0.029312077909708023,0.04366901144385338
1775033837785944300,36.6999443359375,9.873384475708008,0.029312077909708023,0.04247260093688965
1775033837837425000,36.7514248046875,9.870393753051758,0.02632104977965355,0.04007977992296219
1775033837888905500,36.802905517578125,9.868598937988281,0.029312077909708023,0.04247260093688965
1775033837940386000,36.854385986328126,9.870991706848145,0.02751746028661728,0.04307080805301666
1775033837991866600,36.90586669921875,9.870393753051758,0.02751746028661728,0.04127619042992592
1775033838043347200,36.95734716796875,9.875777244567871,0.030508488416671753,0.047258246690034866
1775033838094827800,37.00882788085938,9.876375198364258,0.028115665540099144,0.038285162299871445
1775033838146308400,37.06030834960937,9.868000984191895,0.02392822690308094,0.04366901144385338
1775033838197789000,37.11178881835937,9.872786521911621,0.029312077909708023,0.046061836183071136
1775033838249269500,37.16326953125,9.873982429504395,0.026919255033135414,0.04426721855998039
1775033838300750000,37.21475,9.870991706848145,0.028115665540099144,0.04187439754605293
1775033838352230700,37.266230712890625,9.870991706848145,0.029910283163189888,0.047258246690034866
1775033838403711200,37.317711181640625,9.870991706848145,0.029312077909708023,0.03888336941599846
1775033838455191800,37.36919189453125,9.870393753051758,0.028115665540099144,0.04247260093688965
1775033838506672400,37.42067236328125,9.874580383300781,0.025722842663526535,0.04127619042992592
1775033838558153000,37.47215307617188,9.872187614440918,0.025722842663526535,0.04426721855998039
1775033838609633500,37.52363354492188,9.873384475708008,0.030508488416671753,0.048454657196998596
1775033838661114000,37.57511401367187,9.871589660644531,0.026919255033135414,0.04307080805301666
1775033838712594700,37.6265947265625,9.873982429504395,0.029312077909708023,0.04127619042992592
1775033838764075300,37.6780751953125,9.868598937988281,0.029312077909708023,0.04127619042992592
1775033838815555800,37.729555908203125,9.875777244567871,0.03170489892363548,0.04426721855998039
1775033838867036400,37.781036376953125,9.872786521911621,0.022133609279990196,0.046061836183071136
1775033838918517000,37.83251708984375,9.875777244567871,0.03290131315588951,0.04007977992296219
1775033838969997600,37.88399755859375,9.866206169128418,0.03170489892363548,0.04785645380616188
1775033839021478100,37.93547802734375,9.870393753051758,0.030508488416671753,0.04247260093688965
1775033839072958700,37.98695874023438,9.870991706848145,0.03290131315588951,0.04007977992296219
1775033839124439300,38.03843920898437,9.871589660644531,0.028115665540099144,0.04127619042992592
1775033839175919900,38.089919921875,9.869794845581055,0.028115665540099144,0.04426721855998039
1775033839227400400,38.141400390625,9.870991706848145,0.029312077909708023,0.03888336941599846
1775033839278881000,38.192881103515624,9.877572059631348,0.029910283163189888,0.04127619042992592
1775033839330361600,38.244361572265625,9.873384475708008,0.028115665540099144,0.04426721855998039
1775033839381842200,38.29584228515625,9.868598937988281,0.02871387079358101,0.04247260093688965
1775033839433323000,38.34732299804688,9.868000984191895,0.029312077909708023,0.04247260093688965
1775033839484803300,38.39880322265625,9.870991706848145,0.030508488416671753,0.04486542567610741
1775033839536284200,38.4502841796875,9.873384475708008,0.030508488416671753,0.04366901144385338
1775033839587764700,38.5017646484375,9.870393753051758,0.02751746028661728,0.040677983313798904
1775033839639245000,38.5532451171875,9.868598937988281,0.025722842663526535,0.04307080805301666
1775033839690725600,38.6047255859375,9.868598937988281,0.03469592705368996,0.04007977992296219
1775033839742206200,38.656206298828124,9.865009307861328,0.02632104977965355,0.04307080805301666
1775033839793686800,38.707686767578124,9.873384475708008,0.03290131315588951,0.04127619042992592
1775033839845167400,38.75916748046875,9.867402076721191,0.024526432156562805,0.04127619042992592
1775033839896648000,38.81064794921875,9.872786521911621,0.029910283163189888,0.039481572806835175
1775033839948128500,38.86212841796875,9.875179290771484,0.028115665540099144,0.04486542567610741
1775033839999609000,38.91360913085938,9.873982429504395,0.02871387079358101,0.04366901144385338
1775033840051089700,38.96508959960938,9.865608215332031,0.029910283163189888,0.046061836183071136
1775033840102570200,39.0165703125,9.867402076721191,0.03409772366285324,0.04247260093688965
1775033840154050800,39.06805078125,9.873384475708008,0.030508488416671753,0.04127619042992592
1775033840205531400,39.119531494140624,9.873384475708008,0.029910283163189888,0.04486542567610741
1775033840257012000,39.171011962890624,9.874580383300781,0.025722842663526535,0.04366901144385338
1775033840308492800,39.222492919921876,9.872187614440918,0.02751746028661728,0.04426721855998039
1775033840359973000,39.27397314453125,9.869196891784668,0.030508488416671753,0.04307080805301666
1775033840411453700,39.32545361328125,9.870991706848145,0.02751746028661728,0.040677983313798904
1775033840462934300,39.37693432617188,9.873982429504395,0.029910283163189888,0.047258246690034866
1775033840514414800,39.42841479492188,9.871589660644531,0.02871387079358101,0.04546362906694412
1775033840565895400,39.4798955078125,9.870991706848145,0.03349951654672623,0.04546362906694412
1775033840617376000,39.5313759765625,9.870991706848145,0.031106693670153618,0.04187439754605293
1775033840668856600,39.58285668945312,9.875777244567871,0.02871387079358101,0.04486542567610741
1775033840720337200,39.634337158203124,9.870991706848145,0.02632104977965355,0.04247260093688965
1775033840771817700,39.685817626953124,9.867402076721191,0.029910283163189888,0.04127619042992592
1775033840823298300,39.73729833984375,9.868598937988281,0.030508488416671753,0.04187439754605293
1775033840874779000,39.78877880859375,9.870393753051758,0.0323031060397625,0.04426721855998039
1775033840926259500,39.84025952148438,9.872786521911621,0.02751746028661728,0.04366901144385338
1775033840977740000,39.89173999023438,9.868598937988281,0.030508488416671753,0.04366901144385338
1775033841029220600,39.943220703125,9.873384475708008,0.028115665540099144,0.04546362906694412
1775033841080701200,39.994701171875,9.870991706848145,0.03349951654672623,0.04307080805301666
1775033841132181800,40.046181640625,9.873384475708008,0.031106693670153618,0.04426721855998039
1775033841183662300,40.097662353515624,9.868598937988281,0.029312077909708023,0.04366901144385338
1775033841235143000,40.149142822265624,9.873384475708008,0.03170489892363548,0.04007977992296219
1775033841286623500,40.20062353515625,9.872187614440918,0.031106693670153618,0.04127619042992592
1775033841338104000,40.25210400390625,9.869794845581055,0.026919255033135414,0.04486542567610741
1775033841389584600,40.30358471679688,9.870991706848145,0.029910283163189888,0.04486542567610741
1775033841441065200,40.35506518554688,9.870393753051758,0.02871387079358101,0.04546362906694412
1775033841492545800,40.4065458984375,9.871589660644531,0.02632104977965355,0.04426721855998039
1775033841544026400,40.4580263671875,9.873384475708008,0.025722842663526535,0.04666004329919815
1775033841595507000,40.5095068359375,9.868598937988281,0.02392822690308094,0.04127619042992592
1775033841646987500,40.56098754882812,9.867402076721191,0.029312077909708023,0.04187439754605293
1775033841698468000,40.612468017578124,9.872187614440918,0.029312077909708023,0.04486542567610741
1775033841749948700,40.66394873046875,9.876974105834961,0.028115665540099144,0.04007977992296219
1775033841801429200,40.71542919921875,9.870991706848145,0.03409772366285324,0.04486542567610741
1775033841852909800,40.76690991210938,9.868598937988281,0.030508488416671753,0.039481572806835175
1775033841904390400,40.81839038085938,9.870991706848145,0.026919255033135414,0.047258246690034866
1775033841955871000,40.86987109375,9.872187614440918,0.030508488416671753,0.046061836183071136
1775033842007351600,40.9213515625,10.474580764770508,0.01375873014330864,0.11665010452270508
1775033842058832100,40.97283203125,8.591429710388184,0.16929219663143158,-0.2925225794315338
