time,seconds_elapsed,z,y,x
1775033801229590000,0.143590087890625,0,0,0
1775033801281070800,0.19507080078125,-0.28145885467529297,-0.0023221708834171295,-0.03132600337266922
1775033801332551700,0.2465517578125,-0.2971477508544922,0.05015665292739868,-0.07515189051628113
1775033801384032500,0.298032470703125,0.42768287658691406,-0.03468552976846695,0.07632777094841003
1775033801435513600,0.349513671875,-0.3465852737426758,0.03677928447723389,-0.07335927337408066
1775033801486994400,0.400994384765625,0.040195465087890625,-0.008367611095309258,0.02082708105444908
1775033801538475300,0.452475341796875,0.15069580078125,-0.016774075105786324,0.0424053892493248
1775033801589956000,0.5039560546875,-0.037390708923339844,0.0049860551953315735,-0.011368583887815475
1775033801641437000,0.55543701171875,-0.1176004409790039,0.017947731539607048,-0.03026009351015091
1775033801692917800,0.606917724609375,-0.007496833801269531,0.006118547171354294,0.0009669139981269836
1775033801744398600,0.658398681640625,-0.02240467071533203,0.009612871333956718,-0.002365313470363617
1775033801795879400,0.70987939453125,-0.016880035400390625,0.010019484907388687,-0.002705257385969162
1775033801847360300,0.7613603515625,-0.016571044921875,-0.0021799225360155106,-0.002461157739162445
1775033801898841000,0.812841064453125,-0.009706497192382812,0.007062157616019249,-0.008039232343435287
1775033801950322000,0.864322021484375,-0.014748573303222656,0.0032944437116384506,-0.005840972065925598
1775033802001803000,0.915802978515625,-0.012789726257324219,0.0034491121768951416,-0.0015851035714149475
1775033802053283800,0.967283935546875,-0.00916290283203125,0.002446698024868965,-0.0030393004417419434
1775033802104764700,1.0187646484375,-0.010228157043457031,0.0053251031786203384,0.0000624731183052063
1775033802156245500,1.07024560546875,-0.011933326721191406,0.0017025191336870193,-0.0028964467346668243
1775033802207726300,1.121726318359375,-0.011670112609863281,0.0014015007764101028,-0.004336491227149963
1775033802259207200,1.173207275390625,-0.006676673889160156,0.002349894493818283,-0.0017631538212299347
1775033802310688000,1.22468798828125,-0.007948875427246094,0.004140846431255341,-0.0001357458531856537
1775033802362168800,1.2761689453125,-0.003994941711425781,0.004082163795828819,-0.0012973956763744354
1775033802413649700,1.327649658203125,-0.0032958984375,0.00005476176738739014,-0.005381818860769272
1775033802465130500,1.379130615234375,-0.0063114166259765625,0.007106859236955643,0.0022542476654052734
1775033802516611300,1.430611328125,-0.0035924911499023438,0.0040664635598659515,-0.0020312294363975525
1775033802568092200,1.482092041015625,-0.004025459289550781,0.0024237874895334244,-0.0006519369781017303
1775033802619573200,1.5335732421875,-0.006615638732910156,0.002826126292347908,0.004268486052751541
1775033802671054000,1.58505419921875,-0.0049686431884765625,0.0022875890135765076,-0.001281045377254486
1775033802722535000,1.636534912109375,-0.0012655258178710938,0.0010159648954868317,-0.0006951726973056793
1775033802774015700,1.688015625,-0.007008552551269531,-0.0005150549113750458,-0.004734855145215988
1775033802825496600,1.73949658203125,0.0023479461669921875,0.0007830150425434113,-0.0036381706595420837
1775033802876977400,1.790977294921875,-0.00186920166015625,0.00426081009209156,0.0006100684404373169
1775033802928458200,1.842458251953125,-0.0017118453979492188,-0.003119243308901787,-0.0006136931478977203
1775033802979939000,1.89393896484375,-0.0030307769775390625,0.00022389739751815796,0.0014594048261642456
1775033803031420000,1.945419921875,-0.001316070556640625,0.001730469986796379,-0.002123303711414337
1775033803082900700,1.996900634765625,-0.0037631988525390625,0.0038771890103816986,0.0051460228860378265
1775033803134381600,2.048381591796875,-0.0005273818969726562,0.0023786500096321106,-0.000334959477186203
1775033803185862400,2.0998623046875,-0.007063865661621094,-0.0006000101566314697,-0.0038492195308208466
1775033803237343200,2.15134326171875,-0.0035505294799804688,-0.0019963644444942474,-0.0035099200904369354
1775033803288824000,2.202823974609375,-0.0014286041259765625,0.00495569035410881,-0.00027420371770858765
1775033803340305000,2.254304931640625,0.0030775070190429688,-0.003848860040307045,-0.0050330497324466705
1775033803391785700,2.30578564453125,-0.0041255950927734375,-0.0009530056267976761,0.0020798929035663605
1775033803443266600,2.3572666015625,0.0017032623291015625,0.0026559587568044662,0.0003678351640701294
1775033803494747400,2.408747314453125,0.0015611648559570312,0.0013062097132205963,-0.0018850043416023254
1775033803546228200,2.460228271484375,-0.0025911331176757812,0.002993699163198471,0.00011845678091049194
1775033803597709300,2.511709228515625,-0.00347137451171875,0.000837443396449089,-0.0007463060319423676
1775033803649190000,2.56318994140625,0.0008382797241210938,-0.0013145878911018372,0.003037281334400177
1775033803700671000,2.6146708984375,-0.002887725830078125,-0.0031590405851602554,-0.0018075630068778992
1775033803752151800,2.66615185546875,-0.0011854171752929688,-0.004294920712709427,-0.0023694075644016266
1775033803803632600,2.717632568359375,-0.0003528594970703125,-0.0015519969165325165,-0.002755992114543915
1775033803855113500,2.769113525390625,-0.003246307373046875,0.0026139244437217712,-0.0023315325379371643
1775033803906594300,2.82059423828125,0.005431175231933594,0.004699883982539177,0.000981997698545456
1775033803958075100,2.8720751953125,-0.0012359619140625,0.002002490684390068,0.0011892803013324738
1775033804009556000,2.923555908203125,-0.000766754150390625,0.0012968741357326508,-0.0004013963043689728
1775033804061036800,2.975036865234375,0.00039386749267578125,0.0008391514420509338,-0.004052542150020599
1775033804112517600,3.026517578125,0.00182342529296875,-0.0017268266528844833,-0.001550033688545227
1775033804163998500,3.07799853515625,-0.00015544891357421875,-0.001249060034751892,-0.0035956241190433502
1775033804215479300,3.129479248046875,0.005339622497558594,0.0033054184168577194,0.0010144002735614777
1775033804266960100,3.180960205078125,0.0019712448120117188,-0.0011176615953445435,-0.00033801421523094177
1775033804318441000,3.23244091796875,-0.00002193450927734375,-0.004298731684684753,0.003364376723766327
1775033804369921800,3.283921875,-0.0022144317626953125,0.00009649060666561127,-0.00014002621173858643
1775033804421402600,3.335402587890625,0.0005283355712890625,0.0009771864861249924,0.0030384138226509094
1775033804472883500,3.386883544921875,-0.0024385452270507812,0.0029157940298318863,-0.0014549195766448975
1775033804524364300,3.4383642578125,-0.0018701553344726562,-0.0001875758171081543,0.0015140250325202942
1775033804575845000,3.48984521484375,0.006329536437988281,-0.0019840821623802185,-0.0034881681203842163
1775033804627326000,3.541325927734375,-0.010283470153808594,0.0014875195920467377,-0.003910228610038757
1775033804678806800,3.592806884765625,0.005560874938964844,-0.001131884753704071,-0.003342684358358383
1775033804730287600,3.64428759765625,-0.005137443542480469,0.0003934185951948166,0.0022481195628643036
1775033804781768400,3.6957685546875,0.000774383544921875,-0.0006731376051902771,0.0024451427161693573
1775033804833249300,3.747249267578125,-0.0007524490356445312,0.004612121731042862,-0.0020461715757846832
1775033804884730000,3.798730224609375,0.00223541259765625,-0.0015103667974472046,0.0013854466378688812
1775033804936211000,3.8502109375,-0.001972198486328125,-0.0003195032477378845,0.0004152357578277588
1775033804987691800,3.90169189453125,0.000385284423828125,0.001916462555527687,0.0003043077886104584
1775033805039172600,3.953172607421875,-0.0007429122924804688,0.0021380465477705,0.0009813308715820312
1775033805090653400,4.0046533203125,-0.0006818771362304688,-0.0008539147675037384,0.0022855140268802643
1775033805142134300,4.05613427734375,-0.0006246566772460938,0.004128269851207733,0.0011924803256988525
1775033805193615000,4.107614990234375,0.001987457275390625,0.00426037423312664,-0.0008583478629589081
1775033805245096000,4.159095947265625,-0.00000667572021484375,-0.0010542329400777817,-0.004613824188709259
1775033805296576800,4.21057666015625,-0.0011034011840820312,-0.00004344433546066284,-0.0003654100000858307
1775033805348057600,4.2620576171875,0.0026454925537109375,0.0016618836671113968,-0.0005062557756900787
1775033805399538400,4.313538330078125,0.0009632110595703125,0.001221589744091034,-0.0005880855023860931
1775033805451019300,4.365019287109375,-0.00021266937255859375,0.0004054103046655655,-0.0032697804272174835
1775033805502500000,4.4165,0.002727508544921875,0.0009424034506082535,-0.0015636421740055084
1775033805553981000,4.46798095703125,-0.0011548995971679688,0.0013404283672571182,-0.0029720813035964966
1775033805605461800,4.519461669921875,0.0022325515747070312,0.000005032867193222046,-0.00284774973988533
1775033805656942600,4.570942626953125,0.0005846023559570312,-0.003777654841542244,-0.0012243390083312988
1775033805708423400,4.62242333984375,0.0016317367553710938,-0.0057352036237716675,-0.003249768167734146
1775033805759904300,4.673904296875,0.00003337860107421875,0.0005607549101114273,-0.0012276917695999146
1775033805811385000,4.725385009765625,-0.001430511474609375,-0.0008838791400194168,0.0007203258574008942
1775033805862866000,4.776865966796875,-0.0002155303955078125,0.002766340970993042,0.0024119652807712555
1775033805914346800,4.8283466796875,0.0016298294067382812,0.003601018339395523,-0.0014736317098140717
1775033805965827600,4.87982763671875,0.002223968505859375,-0.0035343263298273087,0.0018631145358085632
1775033806017308400,4.931308349609375,0.0016727447509765625,0.00024231523275375366,0.0018685422837734222
1775033806068789200,4.982789306640625,0.00043773651123046875,0.0010642539709806442,-0.0017011873424053192
1775033806120270000,5.03427001953125,-0.0010623931884765625,-0.002887910231947899,-0.0032261796295642853
1775033806171751000,5.0857509765625,-0.0009737014770507812,-0.001899978145956993,-0.0011110827326774597
1775033806223231700,5.137231689453125,-0.0005273818969726562,0.0031217504292726517,0.00046218186616897583
1775033806274712300,5.18871240234375,-0.0008497238159179688,0.00046061910688877106,-0.002942655235528946
1775033806326193200,5.240193115234375,-0.0062618255615234375,0.000803723931312561,0.0006586574018001556
1775033806377674000,5.291674072265625,0.0001087188720703125,0.0051393061876297,0.0008931495249271393
1775033806429154800,5.34315478515625,-0.0009975433349609375,0.0021205339580774307,0.001250244677066803
1775033806480636000,5.394635986328125,-0.0005483627319335938,0.0014989152550697327,-0.0002974197268486023
1775033806532116700,5.44611669921875,-0.00013828277587890625,0.001437148079276085,-0.0049115195870399475
1775033806583597300,5.497597412109375,-0.0012235641479492188,-0.004562836140394211,-0.001654263585805893
1775033806635078100,5.549078125,-0.0007562637329101562,0.0009038820862770081,-0.001768600195646286
1775033806686559000,5.60055908203125,0.00003814697265625,-0.002763396129012108,-0.0032075121998786926
1775033806738039800,5.652039794921875,0.0047855377197265625,0.0017275772988796234,0.0007338784635066986
1775033806789520600,5.703520751953125,0.0007305145263671875,-0.001135319471359253,0.002106115221977234
1775033806841001500,5.75500146484375,0.001399993896484375,-0.0011528171598911285,0.00043915584683418274
1775033806892482300,5.806482421875,-0.0012750625610351562,-0.002963334321975708,0.001565098762512207
1775033806943963100,5.857963134765625,-0.0008039474487304688,0.003196079283952713,-0.0004695020616054535
1775033806995444000,5.90944384765625,0.0025529861450195312,0.0029456596821546555,0.00022444501519203186
1775033807046924800,5.9609248046875,0.003070831298828125,-0.0033567044883966446,0.00502438098192215
1775033807098405600,6.012405517578125,0.000621795654296875,-0.0004548393189907074,0.002383492887020111
1775033807149886500,6.063886474609375,0.00020313262939453125,0.0018400419503450394,-0.0010868608951568604
1775033807201367000,6.115366943359375,-0.00237274169921875,0.00005002319812774658,-0.001979213207960129
1775033807252847900,6.166847900390625,-0.0032711029052734375,0.00367065891623497,-0.001843571662902832
1775033807304328700,6.21832861328125,-0.004460334777832031,-0.0006405822932720184,0.001842014491558075
1775033807355809500,6.2698095703125,-0.0029926300048828125,-0.0005240533500909805,0.0002923235297203064
1775033807407290400,6.321290283203125,0.0005464553833007812,0.0006792601197957993,-0.0035112164914608
1775033807458771200,6.372771240234375,-0.0049800872802734375,0.0017356965690851212,0.0006312280893325806
1775033807510252000,6.424251953125,-0.0009126663208007812,0.0031160619109869003,-0.0002620518207550049
1775033807561732900,6.47573291015625,-0.00010395050048828125,0.0019991155713796616,0.0008274652063846588
1775033807613213700,6.527213623046875,-0.000461578369140625,0.002674425020813942,0.0025100521743297577
1775033807664694500,6.578694580078125,-0.0015192031860351562,-0.0014257393777370453,-0.001193750649690628
1775033807716175000,6.630175048828125,0.0029935836791992188,-0.00014708004891872406,-0.00441315770149231
1775033807767656000,6.681656005859375,0.00018596649169921875,0.0005644131451845169,0.0013146959245204926
1775033807819136800,6.73313671875,0.0012655258178710938,0.0005466993898153305,-0.0017006248235702515
1775033807870617600,6.78461767578125,0.0029878616333007812,0.0005644802004098892,0.0016549043357372284
1775033807922098400,6.836098388671875,-0.0009164810180664062,0.00021541863679885864,-0.0014365911483764648
1775033807973579300,6.887579345703125,0.000621795654296875,0.0005313344299793243,-0.002489771693944931
1775033808025060000,6.93906005859375,-0.0012598037719726562,-0.0010539460927248001,-0.0015327557921409607
1775033808076541000,6.990541015625,-0.0011548995971679688,-0.0036044418811798096,-0.000384356826543808
1775033808128021500,7.042021484375,0.0011348724365234375,-0.001826070249080658,0.002035636454820633
1775033808179502300,7.09350244140625,-0.0011539459228515625,-0.0054559484124183655,-0.002407461404800415
1775033808230983200,7.144983154296875,-0.0021533966064453125,0.0067605022341012955,0.0008171498775482178
1775033808282464000,7.196464111328125,0.0024137496948242188,-0.0015587694942951202,0.0003071688115596771
1775033808333944800,7.24794482421875,0.0003833770751953125,0.001607067883014679,-0.0004788599908351898
1775033808385425700,7.29942578125,0.002544403076171875,-0.0017530322074890137,-0.0045369453728199005
1775033808436906500,7.350906494140625,0.003063201904296875,0.0007450729608535767,0.00005654245615005493
1775033808488387300,7.40238720703125,0.0020780563354492188,0.0038937795907258987,0.0026296190917491913
1775033808539868000,7.453867919921875,-0.0010223388671875,-0.0011669881641864777,-0.0010845400393009186
1775033808591348700,7.5053486328125,-0.002765655517578125,0.0016474463045597076,-0.0009282045066356659
1775033808642829600,7.55682958984375,0.0029468536376953125,0.0011277180165052414,0.0031409934163093567
1775033808694310400,7.608310302734375,-0.0024175643920898438,0.000223672017455101,-0.0012993663549423218
1775033808745791200,7.659791259765625,-0.0011186599731445312,0.0031453147530555725,0.00024243071675300598
1775033808797272000,7.71127197265625,-0.0035877227783203125,-0.00015408731997013092,-0.0023180916905403137
1775033808848753000,7.7627529296875,0.0036573410034179688,-0.0006665736436843872,-0.0008813515305519104
1775033808900233500,7.8142333984375,0.0018911361694335938,0.0010092463344335556,-0.00015295296907424927
1775033808951714300,7.86571435546875,-0.0015573501586914062,0.003745436668395996,-0.00013169273734092712
1775033809003195100,7.917195068359375,0.000034332275390625,0.003375869244337082,-0.0007955282926559448
1775033809054676000,7.968676025390625,-0.0021619796752929688,0.002623898908495903,-0.000354621559381485
1775033809106156800,8.02015673828125,-0.0001544952392578125,0.0006141830235719681,0.0014646686613559723
1775033809157637600,8.0716376953125,0.0027837753295898438,-0.00219530425965786,-0.0004766024649143219
1775033809209118200,8.1231181640625,-0.00037288665771484375,-0.0024826060980558395,0.0008918866515159607
1775033809260599000,8.17459912109375,-0.0021686553955078125,-0.0008710920810699463,0.0017000138759613037
1775033809312080000,8.226079833984375,0.0005674362182617188,0.0033073872327804565,0.0016148164868354797
1775033809363560700,8.277560791015626,-0.00350189208984375,0.003989597782492638,-0.0003858506679534912
1775033809415041500,8.32904150390625,0.00007915496826171875,-0.0010104551911354065,-0.0020777955651283264
1775033809466522400,8.3805224609375,-0.004314422607421875,0.0028957128524780273,-0.0019434355199337006
1775033809518003000,8.4320029296875,0.00043201446533203125,-0.0025204233825206757,0.0026612654328346252
1775033809569483800,8.48348388671875,0.004052162170410156,0.0010643582791090012,-0.001254584640264511
1775033809620964600,8.534964599609374,0.004810333251953125,-0.0000840555876493454,-0.00009156018495559692
1775033809672445400,8.586445556640625,0.002216339111328125,-0.00003944709897041321,0.0017526894807815552
1775033809723926300,8.63792626953125,-0.0005273818969726562,0.0057557113468647,-0.0008961670100688934
1775033809775407000,8.689406982421875,0.0060977935791015625,-0.0023632999509572983,0.0005072802305221558
1775033809826888000,8.740887939453126,0.00339508056640625,0.0010663177818059921,-0.0014013685286045074
1775033809878368500,8.792368408203124,-0.0038328170776367188,-0.0005426853895187378,-0.003976680338382721
1775033809929849300,8.843849365234375,-0.002780914306640625,0.0006364528089761734,0.0016101635992527008
1775033809981330200,8.895330078125,0.0000095367431640625,0.0012096762657165527,0.001484893262386322
1775033810032811000,8.94681103515625,-0.001453399658203125,-0.0011420045047998428,-0.00041037052869796753
1775033810084291800,8.998291748046874,-0.00023651123046875,-0.0009622145444154739,-0.0026079677045345306
1775033810135772700,9.049772705078125,-0.00021457672119140625,-0.0032279547303915024,-0.0013323090970516205
1775033810187253200,9.101253173828125,-0.0023899078369140625,-0.0019190870225429535,-0.0006239302456378937
1775033810238734000,9.152734130859375,0.003292083740234375,-0.00250052846968174,-0.001977745443582535
1775033810290215000,9.20421484375,-0.00283050537109375,-0.0023494046181440353,0.0007073991000652313
1775033810341695700,9.25569580078125,-0.00003814697265625,-0.004437685012817383,0.0006096549332141876
1775033810393176600,9.307176513671875,-0.000766754150390625,-0.0012343693524599075,-0.00006853416562080383
1775033810444657400,9.358657470703125,-0.0021648406982421875,0.0011941678822040558,0.00287063792347908
1775033810496138000,9.410137939453126,-0.0056400299072265625,0.0022289641201496124,-0.0029856301844120026
1775033810547618800,9.461618896484374,-0.005900382995605469,0.004178786650300026,0.00019690394401550293
1775033810599099600,9.513099609375,0.0019016265869140625,-0.0012026112526655197,-0.0027351602911949158
1775033810650580500,9.56458056640625,0.003570556640625,-0.0008891057223081589,0.0007918030023574829
1775033810702061300,9.616061279296876,0.0014448165893554688,0.003657052293419838,-0.0018719546496868134
1775033810753542000,9.6675419921875,0.0016889572143554688,0.0020220521837472916,-0.0028510503470897675
1775033810805022700,9.719022705078125,0.0015478134155273438,0.00030000321567058563,0.0035628527402877808
1775033810856503600,9.770503662109375,-0.0004100799560546875,0.00021755509078502655,0.002861853688955307
1775033810907984400,9.821984375,0.0021839141845703125,-0.0031007323414087296,-0.0043609775602817535
1775033810959465000,9.87346484375,-0.00092315673828125,0.0036808811128139496,0.0001271963119506836
1775033811010945800,9.92494580078125,-0.0026750564575195312,-0.0028979983180761337,-0.004261340945959091
1775033811062426600,9.976426513671875,0.0019359588623046875,-0.0033022258430719376,-0.0013861581683158875
1775033811113907500,10.027907470703125,0.0010433197021484375,0.000395139679312706,-0.0013564527034759521
1775033811165388300,10.07938818359375,-0.0016031265258789062,-0.0027620699256658554,-0.0013293586671352386
1775033811216868900,10.130868896484374,-0.0011043548583984375,-0.0018105804920196533,0.0008887685835361481
1775033811268349700,10.182349609375,0.00008296966552734375,-0.0008437409996986389,0.006720155477523804
1775033811319830500,10.23383056640625,0.00007724761962890625,-0.0020222272723913193,0.0022424906492233276
1775033811371311400,10.285311279296875,-0.005046844482421875,0.0018395911902189255,-0.0026880204677581787
1775033811422792000,10.3367919921875,-0.00024127960205078125,0.0002620108425617218,0.0002457424998283386
1775033811474272800,10.388272705078125,-0.00022220611572265625,0.003154110163450241,-0.0031029917299747467
1775033811525753600,10.439753662109375,-0.0009355545043945312,-0.00036166608333587646,-0.0010075196623802185
1775033811577234400,10.491234375,0.0060863494873046875,0.0007079374045133591,-0.0020114965736865997
1775033811628715300,10.54271533203125,0.0037527084350585938,0.0014647040516138077,0.0006767362356185913
1775033811680195800,10.59419580078125,-0.004967689514160156,0.00045881234109401703,0.0049689337611198425
1775033811731676700,10.6456767578125,0.0012941360473632812,0.0032876934856176376,-0.0026528015732765198
1775033811783157500,10.697157470703125,0.0037431716918945312,-0.0011930577456951141,0.0009618774056434631
1775033811834638300,10.748638427734376,-0.0009555816650390625,0.0018210988491773605,0.0022579319775104523
1775033811886119000,10.800118896484374,-0.00014591217041015625,0.0001972336322069168,-0.00020973384380340576
1775033811937599700,10.851599853515625,0.009008407592773438,-0.000512339174747467,-0.0032980069518089294
1775033811989080600,10.90308056640625,0.000579833984375,0.0034943725913763046,0.00210358202457428
1775033812040561400,10.9545615234375,0.0005321502685546875,0.0008576512336730957,-0.0014953650534152985
1775033812092042000,11.0060419921875,-0.0035333633422851562,0.0018258355557918549,-0.004381537437438965
1775033812143522800,11.057522705078124,0.0007829666137695312,-0.0070151686668396,-0.0030056461691856384
1775033812195003600,11.109003662109375,-0.0025730133056640625,0.0015070922672748566,-0.002204831689596176
1775033812246484500,11.160484375,0.0005655288696289062,-0.0008219461888074875,-0.0009629093110561371
1775033812297965000,11.211965087890626,-0.0024061203002929688,0.0019381903111934662,0.0034653842449188232
1775033812349446000,11.26344580078125,0.0021810531616210938,-0.0026199929416179657,0.00026081129908561707
1775033812400926700,11.3149267578125,0.0005359649658203125,0.00178525410592556,0.0006136894226074219
1775033812452407600,11.366407470703125,-0.0024318695068359375,-0.003538750112056732,0.00020575150847434998
1775033812503888100,11.41788818359375,-0.004058837890625,-0.0031592287123203278,0.0033593252301216125
1775033812555369000,11.469368896484376,-0.004451751708984375,0.0014806557446718216,0.0007527321577072144
1775033812606849800,11.520849853515625,-0.0018873214721679688,0.001760438084602356,0.002479206770658493
1775033812658330600,11.57233056640625,0.00046443939208984375,0.001095680519938469,0.0010900944471359253
1775033812709811200,11.623811279296875,0.0007925033569335938,0.0018209423869848251,-0.0011856704950332642
1775033812761292000,11.6752919921875,0.0025529861450195312,0.0024859681725502014,-0.0013966560363769531
1775033812812772900,11.72677294921875,0.0001468658447265625,0.00012156553566455841,-0.003558799624443054
1775033812864253400,11.77825341796875,-0.0024251937866210938,0.0016577281057834625,-0.0006463676691055298
1775033812915734300,11.829734375,-0.003322601318359375,0.0009204819798469543,0.0027540884912014008
1775033812967215000,11.881215087890626,-0.0023136138916015625,0.0028516817837953568,0.0014839209616184235
1775033813018696000,11.932696044921874,0.004093170166015625,-0.002926548942923546,-0.00009339302778244019
1775033813070176500,11.984176513671875,-0.00173187255859375,-0.00196155346930027,-0.0003948509693145752
1775033813121657300,12.0356572265625,0.00024127960205078125,-0.0029996614903211594,-0.001497175544500351
1775033813173138200,12.08713818359375,0.003875732421875,-0.0026646703481674194,-0.002555195242166519
1775033813224618800,12.13861865234375,0.003916740417480469,0.0034441035240888596,-0.004066500812768936
1775033813276099600,12.190099609375,0.0021295547485351562,0.0013190209865570068,-0.0009362958371639252
1775033813327580400,12.241580322265625,-0.001338958740234375,-0.0014547612518072128,0.001709621399641037
1775033813379061000,12.29306103515625,0.0006008148193359375,-0.0013433583080768585,0.0031330548226833344
1775033813430541800,12.344541748046876,0.0031080245971679688,-0.0012884587049484253,-0.0008225254714488983
1775033813482022700,12.396022705078124,-0.0022678375244140625,0.0009074583649635315,0.00025678426027297974
1775033813533503200,12.447503173828125,0.0034027099609375,-0.004344189539551735,-0.001298610121011734
1775033813584984000,12.498984130859375,0.000194549560546875,0.0007604137063026428,-0.002088632434606552
1775033813636465000,12.55046484375,-0.0016508102416992188,0.000957932323217392,-0.0029550939798355103
1775033813687945500,12.601945556640626,-0.0022430419921875,-0.0021981708705425262,0.0005423687398433685
1775033813739426300,12.65342626953125,0.0037937164306640625,0.001996062695980072,-0.00022492185235023499
1775033813790907100,12.7049072265625,-0.0034685134887695312,-0.00010261498391628265,0.0005335882306098938
1775033813842387700,12.7563876953125,-0.0013532638549804688,-0.004808882251381874,0.001499757170677185
1775033813893868500,12.80786865234375,0.002414703369140625,-0.0009861551225185394,-0.0011276118457317352
1775033813945349400,12.859349365234374,0.0055027008056640625,0.0023765210062265396,-0.001661304384469986
1775033813996830000,12.910829833984375,0.0024862289428710938,-0.0021713487803936005,0.0036042965948581696
1775033814048310800,12.962310791015625,0.001911163330078125,0.0007008444517850876,0.0026765577495098114
1775033814099791600,13.01379150390625,0.0002899169921875,-0.0032936055213212967,0.003924433141946793
1775033814151272200,13.065272216796876,-0.0015630722045898438,-0.0012485440820455551,-0.0019248127937316895
1775033814202753000,13.1167529296875,0.001857757568359375,-0.003760945051908493,-0.0009295046329498291
1775033814254233900,13.16823388671875,-0.001953125,0.0005160905420780182,0.002081550657749176
1775033814305714400,13.21971435546875,-0.0017900466918945312,0.0026560835540294647,0.00040754303336143494
1775033814357195300,13.2711953125,0.0016489028930664062,-0.0029641762375831604,-0.00007780641317367554
1775033814408676000,13.322676025390624,-0.0028753280639648438,0.0022961366921663284,-0.001111827790737152
1775033814460156700,13.37415673828125,-0.0015392303466796875,0.0018718726933002472,-0.0011053867638111115
1775033814511637500,13.425637451171875,-0.0006799697875976562,0.0017056632786989212,0.00004504993557929993
1775033814563118300,13.477118408203125,0.0015707015991210938,0.0025081299245357513,0.0007812120020389557
1775033814614599000,13.528598876953126,-0.0018520355224609375,-0.001542670652270317,-0.0029305554926395416
1775033814666079700,13.580079833984374,0.0008611679077148438,-0.0011532250791788101,0.0024878308176994324
1775033814717560300,13.631560302734375,0.00298309326171875,-0.0023055430501699448,-0.0032893791794776917
1775033814769041200,13.683041259765625,-0.0042133331298828125,0.0008489396423101425,0.002253640443086624
1775033814820522000,13.73452197265625,0.005641937255859375,-0.00128277949988842,-0.0005792342126369476
1775033814872002600,13.78600244140625,-0.0025053024291992188,-0.000725284218788147,0.000019237399101257324
1775033814923483400,13.8374833984375,0.0028200149536132812,-0.0017711874097585678,0.003681980073451996
1775033814974964200,13.888964111328125,0.00112152099609375,0.001019839197397232,-0.002735517919063568
1775033815026444800,13.94044482421875,0.0013942718505859375,0.002163626253604889,0.0011571794748306274
1775033815077925600,13.991925537109376,0.001277923583984375,-0.0005851034075021744,-0.005876574665307999
1775033815129406500,14.043406494140624,-0.0024852752685546875,-0.00018079951405525208,0.005318440496921539
1775033815180887000,14.094886962890625,0.0013780593872070312,0.000331902876496315,-0.00032856687903404236
1775033815232367900,14.146367919921875,0.0001659393310546875,0.002074833959341049,-0.0021202638745307922
1775033815283848400,14.197848388671876,0.002712249755859375,0.005770690739154816,-0.0003438331186771393
1775033815335329300,14.249329345703124,-0.0029964447021484375,0.002212727442383766,0.0037961192429065704
1775033815386810000,14.30081005859375,0.0067577362060546875,-0.00580095499753952,-0.006429146975278854
1775033815438290700,14.352290771484375,0.00034618377685546875,0.0009351503103971481,-0.0011799000203609467
1775033815489771500,14.403771484375,-0.0011463165283203125,0.0009424537420272827,-0.000023655593395233154
1775033815541252000,14.455252197265626,-0.0028791427612304688,0.0020927004516124725,0.004103485494852066
1775033815592733000,14.50673291015625,0.0032091140747070312,0.002639422193169594,0.0012114457786083221
1775033815644213800,14.5582138671875,-0.0040035247802734375,0.001041630282998085,0.0018982365727424622
1775033815695694300,14.6096943359375,0.0007171630859375,-0.000056648626923561096,-0.00007915869355201721
1775033815747175200,14.661175048828126,0.00467681884765625,-0.0008403249084949493,-0.002257212996482849
1775033815798656000,14.712656005859374,-0.0022935867309570312,-0.0021475423127412796,0.0013720877468585968
1775033815850136600,14.764136474609375,-0.0013713836669921875,-0.0007870383560657501,-0.005042891949415207
1775033815901617400,14.815617431640625,-0.0016222000122070312,-0.002145731821656227,0.0016954131424427032
1775033815953098000,14.867097900390625,-0.000026702880859375,0.000805320218205452,0.0008318908512592316
1775033816004578800,14.918578857421876,-0.0055065155029296875,0.00099889375269413,0.006112731993198395
1775033816056059600,14.9700595703125,-0.0032196044921875,0.0010006893426179886,0.0004941299557685852
1775033816107540200,15.021540283203125,0.0007038116455078125,0.0001761317253112793,0.0026078559458255768
1775033816159021000,15.07302099609375,0.0017414093017578125,-0.003598928451538086,-0.002718675881624222
1775033816210501600,15.124501708984376,0.0012311935424804688,0.0018087401986122131,0.0015856176614761353
1775033816261982500,15.175982421875,0.0029554367065429688,-0.004613934084773064,0.0005552545189857483
1775033816313463000,15.227463134765625,0.0019779205322265625,0.0009261481463909149,-0.00657036155462265
1775033816364944000,15.27894384765625,-0.010251998901367188,0.0037635043263435364,0.007749319076538086
1775033816416424700,15.3304248046875,0.005591392517089844,-0.0062880609184503555,-0.008113186806440353
1775033816467905300,15.3819052734375,0.005856513977050781,-0.010939490981400013,-0.0012134909629821777
1775033816519386000,15.43338623046875,0.0050029754638671875,0.0038537662476301193,-0.0026606060564517975
1775033816570866700,15.48486669921875,-0.0009002685546875,0.005174605175852776,0.0012731552124023438
1775033816622347500,15.536347412109375,0.0013666152954101562,0.004333266988396645,0.0004929006099700928
1775033816673828400,15.587828369140626,0.0034465789794921875,0.0035487376153469086,-0.0005073212087154388
1775033816725309000,15.639308837890624,0.0027933120727539062,0.001367105171084404,0.002055808901786804
1775033816776789800,15.690789794921875,0.000732421875,0.007315339520573616,-0.00020501390099525452
1775033816828270300,15.742270263671875,-0.0004253387451171875,0.0034528039395809174,0.005081404000520706
1775033816879751200,15.793751220703125,-0.0018548965454101562,-0.003424622118473053,-0.002042200416326523
1775033816931231700,15.845231689453126,0.0004940032958984375,-0.0008607711642980576,-0.004422228783369064
1775033816982712600,15.896712646484374,0.004839897155761719,0.0017124880105257034,-0.0004839785397052765
1775033817034193200,15.948193115234375,-0.0028743743896484375,0.0032454878091812134,0.0012980997562408447
1775033817085674000,15.999674072265625,-0.004462242126464844,0.003472486510872841,-0.0029644668102264404
1775033817137154800,16.05115478515625,-0.002262115478515625,0.0008373614400625229,0.0030931569635868073
1775033817188635400,16.102635498046876,0.004874229431152344,-0.0006098616868257523,-0.0026866793632507324
1775033817240116200,16.1541162109375,0.0037355422973632812,0.001353459432721138,-0.0006258934736251831
1775033817291596800,16.2055966796875,-0.0016927719116210938,-0.001199766993522644,-0.0018514283001422882
1775033817343077600,16.25707763671875,-0.0026464462280273438,0.0010365694761276245,-0.0003211088478565216
1775033817394558200,16.30855810546875,-0.0013303756713867188,0.000480111688375473,-0.0017954371869564056
1775033817446039000,16.3600390625,0.002803802490234375,-0.00624564103782177,-0.0006346479058265686
1775033817497519900,16.411519775390627,-0.009128570556640625,-0.0005225427448749542,-0.0005727075040340424
1775033817549000400,16.46300048828125,-0.0047130584716796875,-0.0006309263408184052,0.0009459294378757477
1775033817600481300,16.514481201171876,-0.0024929046630859375,-0.0011774208396673203,0.00009758025407791138
1775033817651961900,16.5659619140625,0.0028324127197265625,0.0011042915284633636,0.00019307434558868408
1775033817703442700,16.617442626953125,0.00003910064697265625,0.0010020434856414795,-0.0006874017417430878
1775033817754923300,16.66892333984375,0.006249427795410156,0.0005905702710151672,0.001111641526222229
1775033817806404000,16.720404052734374,-0.0004863739013671875,0.002582654356956482,-0.0014363490045070648
1775033817857884700,16.771884765625,-0.004830360412597656,-0.0030781254172325134,0.004764221608638763
1775033817909365500,16.823365478515626,0.0032491683959960938,-0.0010514166206121445,-0.0008365921676158905
1775033817960846300,16.874846435546875,-0.0006780624389648438,0.0009496863931417465,-0.0019975341856479645
1775033818012327000,16.926326904296875,0.0041294097900390625,-0.00010757520794868469,0.0019282586872577667
1775033818063807700,16.977807861328124,-0.005352973937988281,-0.0010636486113071442,0.0005853213369846344
1775033818115288300,17.029288330078124,0.004965782165527344,-0.0019061006605625153,-0.001424551010131836
1775033818166769200,17.08076904296875,-0.0012969970703125,-0.001979755237698555,0.003407493233680725
1775033818218249700,17.132249755859377,-0.000823974609375,0.0009572617709636688,-0.00042825937271118164
1775033818269730600,17.18373046875,-0.0029506683349609375,-0.0009601879864931107,-0.0024349279701709747
1775033818321211100,17.235211181640626,-0.0034360885620117188,0.001208161935210228,0.0007490217685699463
1775033818372692000,17.28669189453125,-0.005709648132324219,-0.0037502162158489227,0.003667786717414856
1775033818424172500,17.338172607421875,-0.0026750564575195312,-0.0019380133599042892,0.002639900892972946
1775033818475653400,17.3896533203125,0.00010776519775390625,-0.0011970661580562592,-0.00300772488117218
1775033818527134000,17.441134033203124,0.004482269287109375,-0.0012826044112443924,-0.0008733123540878296
1775033818578614800,17.49261474609375,-0.0028371810913085938,0.003708949312567711,0.003277067095041275
1775033818630095400,17.544095458984376,-0.005889892578125,-0.0023308414965867996,-0.004298515617847443
1775033818681576200,17.595576171875,0.0037412643432617188,-0.0007317736744880676,-0.0026588141918182373
1775033818733056800,17.647056884765625,-0.0013217926025390625,0.00017956271767616272,0.0023709461092948914
1775033818784537600,17.69853759765625,0.005002021789550781,0.0009809620678424835,0.000035997480154037476
1775033818836018200,17.75001806640625,-0.00016880035400390625,0.0010789018124341965,0.00018418580293655396
1775033818887499000,17.8014990234375,-0.0008831024169921875,0.001344338059425354,0.002547170966863632
1775033818938979800,17.852979736328123,0.00247955322265625,-0.00206744484603405,0.0008812509477138519
1775033818990460400,17.90446044921875,0.003734588623046875,-0.0057367440313100815,0.0018659941852092743
1775033819041941200,17.955941162109376,0.0012292861938476562,-0.0008820705115795135,-0.001665450632572174
1775033819093421800,18.007421875,-0.0021619796752929688,0.0008671730756759644,0.0038708001375198364
1775033819144902400,18.05890234375,0.0031366348266601562,-0.00269455648958683,0.002507586032152176
1775033819196383200,18.11038330078125,0.005068778991699219,-0.002114260569214821,-0.001348305493593216
1775033819247864000,18.161864013671874,-0.0012044906616210938,-0.0004381835460662842,-0.0011323094367980957
1775033819299344600,18.2133447265625,-0.0011053085327148438,0.0007328502833843231,0.0018478184938430786
1775033819350825500,18.264825439453126,-0.002475738525390625,-0.0010712314397096634,0.00325988233089447
1775033819402306000,18.31630615234375,0.0006542205810546875,0.0017092954367399216,-0.003393404185771942
1775033819453787000,18.367786865234375,-0.0001316070556640625,-0.0005417335778474808,-0.00314914807677269
1775033819505267500,18.419267333984376,0.010114669799804688,0.004563936963677406,0.002605736255645752
1775033819556748300,18.470748291015624,0.00013256072998046875,-0.0020411107689142227,-0.004182759672403336
1775033819608228900,18.522228759765625,0.0030460357666015625,-0.00005319342017173767,0.0012926943600177765
1775033819659709700,18.573709716796873,-0.00013256072998046875,-0.0030303820967674255,-0.0007765516638755798
1775033819711190300,18.625190185546874,-0.0037775039672851562,0.00013688206672668457,-0.0024025291204452515
1775033819762671000,18.676671142578126,0.0012903213500976562,0.003405170515179634,0.0016383826732635498
1775033819814151700,18.728151611328126,-0.002838134765625,0.0034767501056194305,-0.002923380583524704
1775033819865632500,18.779632568359375,-0.00004291534423828125,0.00034750252962112427,-0.002400290220975876
1775033819917113000,18.831113037109375,0.00032711029052734375,-0.0007403567433357239,-0.003796219825744629
1775033819968594000,18.882593994140624,0.0010290145874023438,-0.0010546576231718063,0.0010584592819213867
1775033820020074500,18.934074462890624,0.00423431396484375,-0.00216817669570446,0.0002953186631202698
1775033820071555000,18.98555517578125,-0.0016031265258789062,-0.0014896448701620102,0.00018474087119102478
1775033820123036000,19.037035888671873,-0.0011043548583984375,-0.0009619295597076416,-0.0001877136528491974
1775033820174516500,19.0885166015625,-0.001377105712890625,-0.0022587981075048447,-0.0035484321415424347
1775033820225997300,19.139997314453126,-0.0038232803344726562,0.003402961418032646,-0.00264107808470726
1775033820277478000,19.191477783203126,-0.0020427703857421875,0.000184597447514534,-0.000949665904045105
1775033820328958700,19.242958740234375,-0.0000438690185546875,-0.0005721487104892731,0.0032546445727348328
1775033820380439300,19.294439208984375,0.0006914138793945312,-0.002775350585579872,0.0010221786797046661
1775033820431920000,19.345920166015624,-0.0044841766357421875,0.0014197397977113724,-0.0013898089528083801
1775033820483400700,19.397400634765624,-0.00301361083984375,-0.000170879065990448,0.000880904495716095
1775033820534881300,19.44888134765625,0.0016241073608398438,0.0028053242713212967,0.000180121511220932
1775033820586362000,19.500362060546873,0.00222015380859375,0.0009105168282985687,0.00003106147050857544
1775033820637842700,19.5518427734375,-0.0056438446044921875,0.00023536942899227142,-0.00009076669812202454
1775033820689323500,19.603323486328126,-0.0015172958374023438,-0.0008433517068624496,0.0017534159123897552
1775033820740804000,19.65480419921875,-0.0010271072387695312,0.002378799021244049,-0.001721493899822235
1775033820792285000,19.706284912109375,-0.0024023056030273438,-0.0032653864473104477,-0.0023952610790729523
1775033820843765500,19.757765625,-0.00037479400634765625,-0.0009857416152954102,0.002152666449546814
1775033820895246300,19.809246337890624,-0.0014400482177734375,0.002504950389266014,0.006829448044300079
1775033820946727000,19.860726806640624,0.001239776611328125,0.00004513002932071686,0.000372815877199173
1775033820998207500,19.91220751953125,-0.0003261566162109375,0.003416130319237709,-0.0023840703070163727
1775033821049688300,19.963688232421877,-0.0035886764526367188,0.00014984048902988434,-0.00007819384336471558
1775033821101169000,20.0151689453125,0.0025577545166015625,0.0010485630482435226,-0.002574607729911804
1775033821152649700,20.066649658203126,-0.0031385421752929688,-0.0004160720854997635,0.0010198615491390228
1775033821204130300,20.11813037109375,-0.0003185272216796875,0.005139751359820366,-0.00047121569514274597
1775033821255611100,20.169611083984375,-0.003215789794921875,-0.0014182310551404953,-0.0009171925485134125
1775033821307091700,20.221091796875,0.0021715164184570312,0.0012014955282211304,0.0004881545901298523
1775033821358572300,20.272572265625,0.0012578964233398438,0.0005026776343584061,-0.0021975934505462646
1775033821410053000,20.32405322265625,0.0066356658935546875,-0.003204936161637306,-0.001545138657093048
1775033821461533700,20.37553369140625,0.0016946792602539062,-0.0017563216388225555,0.004854649305343628
1775033821513014300,20.42701416015625,0.0019197463989257812,0.0031324252486228943,-0.00007012486457824707
1775033821564495000,20.4784951171875,0.00029659271240234375,0.0032747648656368256,0.0013592056930065155
1775033821615975700,20.5299755859375,-0.0011911392211914062,-0.002315858379006386,-0.0027189962565898895
1775033821667456500,20.58145654296875,-0.00218963623046875,0.0035401731729507446,-0.0016573742032051086
1775033821718937000,20.63293701171875,-0.00200653076171875,-0.0021059364080429077,-0.0008742064237594604
1775033821770417700,20.684417724609375,-0.0007429122924804688,-0.00016043707728385925,0.0020849481225013733
1775033821821898500,20.7358984375,0.0007801055908203125,0.004276977851986885,-0.00022574886679649353
1775033821873379000,20.787379150390624,-0.0000152587890625,0.001622464507818222,-0.0009767338633537292
1775033821924860000,20.83885986328125,0.0043735504150390625,-0.00035061687231063843,-0.0024909935891628265
1775033821976340500,20.890340576171877,-0.00037670135498046875,0.0033717025071382523,0.002159763127565384
1775033822027821300,20.9418212890625,0.0007505416870117188,0.0008874796330928802,-0.004402000457048416
1775033822079302000,20.993302001953126,-0.000408172607421875,-0.000611359253525734,-0.0022458434104919434
1775033822130782500,21.044782470703126,-0.0036649703979492188,0.00020813196897506714,0.003020770847797394
1775033822182263300,21.09626318359375,-0.00189971923828125,0.0009593293070793152,-0.0029763244092464447
1775033822233744000,21.147743896484375,0.0011844635009765625,-0.002880997955799103,0.003400307148694992
1775033822285224400,21.199224365234375,0.0032796859741210938,0.0003688633441925049,0.0011080242693424225
1775033822336705300,21.250705322265624,-0.00028228759765625,0.0002326536923646927,0.003807283937931061
1775033822388185900,21.302185791015624,-0.0020885467529296875,0.0002980940043926239,-0.00020421668887138367
1775033822439666700,21.353666748046876,-0.00045108795166015625,0.00043969228863716125,-0.002277277410030365
1775033822491147300,21.405147216796873,0.004702568054199219,-0.0013405662029981613,0.0028165169060230255
1775033822542627800,21.4566279296875,-0.002635955810546875,-0.0013671033084392548,0.0007152967154979706
1775033822594108700,21.508108642578126,-0.0009546279907226562,0.0020745526999235153,-0.00038482993841171265
1775033822645589200,21.55958935546875,-0.00014400482177734375,-0.0005724858492612839,0.00038728490471839905
1775033822697070000,21.611070068359375,-0.0008630752563476562,0.004169978201389313,-0.00027222931385040283
1775033822748550700,21.662550537109375,0.0028629302978515625,0.00020417757332324982,0.0019053518772125244
1775033822800031200,21.71403125,-0.0028591156005859375,-0.0001414027065038681,-0.0034096501767635345
1775033822851512000,21.765511962890624,-0.0007925033569335938,0.0009098369628190994,-0.002020038664340973
1775033822902992600,21.81699267578125,0.0032939910888671875,0.0016029532998800278,-0.001111932098865509
1775033822954473500,21.868473388671877,-0.0042934417724609375,-0.0029272958636283875,0.0009596236050128937
1775033823005954000,21.9199541015625,0.005202293395996094,0.0007864534854888916,0.0002522692084312439
1775033823057434600,21.9714345703125,-0.005467414855957031,-0.002578847110271454,-0.002271682024002075
1775033823108915500,22.02291552734375,0.001934051513671875,-0.0007699951529502869,-0.0029939040541648865
1775033823160396000,22.07439599609375,0.0025043487548828125,-0.002956310287117958,0.003797058016061783
1775033823211876900,22.125876953125,-0.003920555114746094,0.0020796656608581543,-0.00043673813343048096
1775033823263357400,22.177357421875,-0.0006694793701171875,0.002993239089846611,-0.0053672827780246735
1775033823314838000,22.228838134765624,0.0048694610595703125,0.0026527661830186844,-0.004179965704679489
1775033823366318800,22.28031884765625,-0.0006561279296875,0.002279777079820633,0.003535829484462738
1775033823417799400,22.33179931640625,0.0030546188354492188,0.00020430050790309906,0.0033450722694396973
1775033823469280000,22.383280029296873,0.0013360977172851562,-0.00009307265281677246,-0.0006281845271587372
1775033823520760800,22.4347607421875,0.0041484832763671875,0.00036546774208545685,0.0006243623793125153
1775033823572241400,22.486241455078126,-0.0024118423461914062,0.00032479502260684967,0.0009469501674175262
1775033823623722000,22.537721923828126,0.0061969757080078125,0.001066276803612709,0.0000983700156211853
1775033823675202800,22.589202880859375,0.001293182373046875,0.001474875956773758,0.0026583410799503326
1775033823726683400,22.640683349609375,0.0026493072509765625,-0.003044506534934044,0.002797115594148636
1775033823778164000,22.6921640625,-0.0019598007202148438,0.0016804896295070648,-0.0007643625140190125
1775033823829644800,22.743644775390624,-0.0025272369384765625,0.0015302244573831558,-0.000007908791303634644
1775033823881125400,22.79512548828125,-0.0026807785034179688,-0.0005298387259244919,-0.0008244849741458893
1775033823932606000,22.84660595703125,-0.0017261505126953125,-0.0004953164607286453,-0.0026224330067634583
1775033823984086800,22.898086669921874,-0.005602836608886719,-0.00046406686305999756,0.004774123430252075
1775033824035567400,22.9495673828125,0.0018091201782226562,0.0017580017447471619,0.0007769130170345306
1775033824087048200,23.001048095703126,-0.0034589767456054688,0.0020146742463111877,0.002135779708623886
1775033824138528800,23.05252880859375,0.0008497238159179688,0.0026627518236637115,-0.002372708171606064
1775033824190009300,23.10400927734375,0.0040683746337890625,-0.00003350153565406799,0.000711195170879364
1775033824241490200,23.155490234375,-0.0028514862060546875,0.005077250301837921,-0.00016516074538230896
1775033824292970800,23.206970703125,-0.00041961669921875,-0.00020254775881767273,0.0013193637132644653
1775033824344451300,23.258451416015625,0.004001617431640625,-0.002754487097263336,-0.001293383538722992
1775033824395932200,23.30993212890625,-0.0058383941650390625,-0.00289994478225708,0.003765009343624115
1775033824447412700,23.361412841796874,0.0015935897827148438,0.0018131900578737259,-0.0021180957555770874
1775033824498893300,23.412893310546874,0.004021644592285156,0.0008732955902814865,-0.00431567057967186
1775033824550374100,23.4643740234375,0.0011262893676757812,-0.0002111569046974182,-0.0008804202079772949
1775033824601854700,23.515854736328127,0.00212860107421875,-0.0004742927849292755,-0.000019568949937820435
1775033824653335300,23.567335205078123,-0.0020694732666015625,-0.0007159002125263214,0.0015009567141532898
1775033824704816000,23.618816162109376,-0.0026292800903320312,0.00043024681508541107,-0.0009507909417152405
1775033824756296700,23.670296630859376,0.0045337677001953125,0.00020851008594036102,0.0015679150819778442
1775033824807777300,23.72177734375,0.0030565261840820312,-0.0003124792128801346,0.0006673149764537811
1775033824859258000,23.773258056640625,0.0017042160034179688,0.0034070629626512527,0.0032741986215114594
1775033824910738700,23.82473876953125,-0.0053844451904296875,0.0024770405143499374,0.0030575506389141083
1775033824962219300,23.87621923828125,-0.00054931640625,0.001339927315711975,0.0012543797492980957
1775033825013700000,23.9277001953125,-0.0012350082397460938,-0.0031207725405693054,-0.0010349489748477936
1775033825065180700,23.9791806640625,-0.001861572265625,-0.0036014672368764877,-0.002910219132900238
1775033825116661200,24.0306611328125,0.001949310302734375,0.0029507484287023544,0.0019987523555755615
1775033825168142000,24.08214208984375,-0.0018682479858398438,-0.0009602699428796768,-0.0023703090846538544
1775033825219622700,24.13362255859375,0.0008478164672851562,-0.002765953540802002,-0.004086315631866455
1775033825271103200,24.185103271484376,0.0007772445678710938,0.006323058158159256,0.002335522323846817
1775033825322583800,24.236583740234376,0.005463600158691406,-0.006547808647155762,-0.00036218389868736267
1775033825374064600,24.288064697265625,-0.0008411407470703125,0.0013938862830400467,-0.0003229603171348572
1775033825425545200,24.339545166015625,-0.00040531158447265625,-0.003579573705792427,-0.003306567668914795
1775033825477025800,24.39102587890625,0.0043811798095703125,0.0010953359305858612,0.002001143991947174
1775033825528506600,24.442506591796874,0.0032854080200195312,0.0032348912209272385,0.001112140715122223
1775033825579987200,24.4939873046875,0.00045108795166015625,-0.0009715147316455841,-0.0016726478934288025
1775033825631467800,24.5454677734375,-0.0021457672119140625,-0.0023156292736530304,0.0011770762503147125
1775033825682948600,24.596948486328124,-0.0012369155883789062,0.0034455321729183197,-0.004490390419960022
1775033825734429200,24.64842919921875,0.0014247894287109375,0.0004945229738950729,-0.004933293908834457
1775033825785909800,24.69990966796875,0.0005750656127929688,0.002778809517621994,-0.0017308853566646576
1775033825837390600,24.751390625,-0.001300811767578125,-0.00157892145216465,0.002077963203191757
1775033825888871200,24.80287109375,-0.0044841766357421875,-0.0028724167495965958,0.00003856047987937927
1775033825940351700,24.854351806640626,-0.0048389434814453125,-0.00013091787695884705,-0.0022918768227100372
1775033825991832300,24.905832275390626,0.0017786026000976562,0.0038436073809862137,0.004711702466011047
1775033826043313200,24.957313232421875,0.005286216735839844,0.0002701766788959503,0.0010381042957305908
1775033826094793700,25.008793701171875,-0.0072193145751953125,0.0014294106513261795,0.0006896592676639557
1775033826146274300,25.0602744140625,-0.00003814697265625,-0.004406763240695,-0.0047948844730854034
1775033826197755100,25.111755126953124,-0.0007677078247070312,-0.005193497985601425,-0.0021456927061080933
1775033826249235700,25.163235595703124,0.0040493011474609375,-0.0013865400105714798,-0.0009556002914905548
1775033826300716300,25.21471630859375,0.0007886886596679688,-0.002107219770550728,-0.0030603408813476562
1775033826352196900,25.26619677734375,-0.0058574676513671875,0.0013016462326049805,-0.002701949328184128
1775033826403677700,25.317677734375,0.001575469970703125,-0.0026484057307243347,0.0018715299665927887
1775033826455158300,25.369158203125,-0.00038433074951171875,0.0040954966098070145,-0.0004692152142524719
1775033826506638800,25.420638916015626,-0.0010833740234375,0.0008672457188367844,0.002821359783411026
1775033826558119400,25.472119384765627,0.0011997222900390625,0.0010086223483085632,-0.0017445236444473267
1775033826609600300,25.523600341796875,-0.0032873153686523438,0.0019163955003023148,0.001016184687614441
1775033826661080800,25.575080810546876,-0.0015506744384765625,0.0018891505897045135,0.0027681253850460052
1775033826712561400,25.6265615234375,-0.0021533966064453125,-0.0005187578499317169,-0.0007914826273918152
1775033826764042000,25.6780419921875,0.00826263427734375,0.0010243579745292664,0.0010636672377586365
1775033826815522800,25.729522705078125,-0.009241104125976562,0.0007392466068267822,0.0005235038697719574
1775033826867003400,25.78100341796875,0.0010347366333007812,0.004641260951757431,0.0003466494381427765
1775033826918484000,25.83248388671875,0.0027751922607421875,-0.001462375745177269,0.0029330849647521973
1775033826969964500,25.883964599609374,0.0025434494018554688,0.0018449388444423676,-0.0010531321167945862
1775033827021445400,25.9354453125,0.0012350082397460938,0.003874385729432106,-0.0010511837899684906
1775033827072926000,25.986926025390623,-0.0014257431030273438,-0.003722274675965309,0.001604173332452774
1775033827124406500,26.038406494140624,0.001983642578125,-0.0011332295835018158,0.001431543380022049
1775033827175887000,26.08988720703125,0.0010862350463867188,-0.0006834510713815689,-0.0038441121578216553
1775033827227368000,26.141367919921876,-0.002658843994140625,0.0024638865143060684,0.0014133863151073456
1775033827278848500,26.1928486328125,-0.000244140625,-0.0018197596073150635,0.00043080002069473267
1775033827330329000,26.2443291015625,0.0041637420654296875,-0.005333837121725082,0.0011823736131191254
1775033827381809700,26.2958095703125,-0.001300811767578125,0.004970809444785118,0.005527164787054062
1775033827433290200,26.347290283203126,0.00173187255859375,0.004498707130551338,0.0016433298587799072
1775033827484771000,26.39877099609375,-0.0031652450561523438,-0.004565030336380005,-0.0069402530789375305
1775033827536251600,26.450251708984375,0.0029478073120117188,-0.004654863849282265,-0.004159711301326752
1775033827587732200,26.501732177734375,-0.005707740783691406,-0.00006619282066822052,-0.001055307686328888
1775033827639212800,26.553212890625,-0.0030393600463867188,-0.0011195782572031021,0.00023283064365386963
1775033827690693600,26.604693603515624,0.0012340545654296875,0.0009334273636341095,-0.00028523802757263184
1775033827742174200,26.65617431640625,0.0022268295288085938,-0.0010292604565620422,-0.00020540878176689148
1775033827793654800,26.70765478515625,-0.0001506805419921875,0.00031865015625953674,-0.0019733868539333344
1775033827845135400,26.75913525390625,0.00424957275390625,0.003985198214650154,0.002268664538860321
1775033827896616200,26.8106162109375,0.0006046295166015625,-0.003397822380065918,0.001404937356710434
1775033827948096800,26.8620966796875,-0.0038318634033203125,-0.003490068018436432,-0.00213579460978508
1775033827999577300,26.913577392578127,-0.0020494461059570312,-0.0005214344710111618,-0.002409614622592926
1775033828051058000,26.965057861328123,-0.0018777847290039062,0.0026126112788915634,-0.00019633397459983826
1775033828102538500,27.01653857421875,0.0012044906616210938,0.0013695694506168365,0.0015616491436958313
1775033828154019300,27.068019287109376,-0.004746437072753906,0.0016584135591983795,0.004777971655130386
1775033828205500000,27.1195,-0.002887725830078125,-0.00041230954229831696,-0.0007768385112285614
1775033828256980500,27.17098046875,0.0010099411010742188,0.0021242033690214157,-0.0019426122307777405
1775033828308461000,27.2224609375,0.0012903213500976562,-0.0036410391330718994,0.0012948699295520782
1775033828359942000,27.27394189453125,-0.005396842956542969,0.00021300092339515686,0.0006881654262542725
1775033828411422500,27.32542236328125,0.010041236877441406,-0.00013333186507225037,-0.004748687148094177
1775033828462903000,27.376903076171875,-0.0006666183471679688,0.0013296306133270264,0.004335060715675354
1775033828514383600,27.428383544921875,0.0019474029541015625,0.0012560263276100159,-0.0029629766941070557
1775033828565864200,27.4798642578125,0.005440711975097656,-0.004883447661995888,0.00035954639315605164
1775033828617345000,27.531344970703124,0.0006008148193359375,-0.0008780434727668762,-0.0055107735097408295
1775033828668825600,27.58282568359375,-0.0012760162353515625,0.0006475783884525299,-0.002578645944595337
1775033828720306200,27.63430615234375,-0.00043773651123046875,-0.0020698606967926025,-0.001590438187122345
1775033828771786800,27.685786865234373,-0.0022287368774414062,-0.003274615854024887,0.0008252747356891632
1775033828823267600,27.737267578125,0.006732940673828125,-0.0003579091280698776,0.0009412579238414764
1775033828874748200,27.788748046875,-0.004429817199707031,0.003540048375725746,-0.0017815642058849335
1775033828926228700,27.840228759765626,0.0006923675537109375,0.0007708873599767685,-0.003323625773191452
1775033828977709300,27.891709228515627,-0.0011930465698242188,-0.0025931019335985184,0.0035896599292755127
1775033829029190000,27.94318994140625,0.0032939910888671875,0.0015393756330013275,-0.0006269775331020355
1775033829080670700,27.994670654296876,-0.0002727508544921875,0.0009882673621177673,-0.003124956041574478
1775033829132151300,28.0461513671875,0.0008487701416015625,-0.0013449657708406448,0.001835465431213379
1775033829183632000,28.0976318359375,0.0011444091796875,-0.0006066374480724335,-0.0021065808832645416
1775033829235112400,28.149112548828125,0.0010509490966796875,0.0011670850217342377,-0.0010291747748851776
1775033829286593000,28.200593017578125,-0.0001316070556640625,-0.002643752843141556,0.0003857612609863281
1775033829338073900,28.252073974609374,0.0009737014770507812,-0.002703756093978882,0.0031583942472934723
1775033829389554400,28.303554443359374,-0.0020303726196289062,-0.003631776198744774,-0.001673031598329544
1775033829441035000,28.355034912109375,-0.0007619857788085938,-0.002479182556271553,-0.0035090185701847076
1775033829492515600,28.406515625,-0.008006095886230469,0.004330771043896675,0.0003730878233909607
1775033829543996200,28.45799609375,-0.0000247955322265625,-0.0009352825582027435,-0.0032847896218299866
1775033829595477000,28.50947705078125,0.0025377273559570312,-0.0011857300996780396,-0.0027451440691947937
1775033829646957600,28.56095751953125,0.007443428039550781,-2.3469328880310059e-7,-0.004287902265787125
1775033829698438100,28.612438232421876,0.0013380050659179688,-0.0010597389191389084,0.00536002591252327
1775033829749918700,28.663918701171873,-0.0013341903686523438,-0.0008870195597410202,0.0019644461572170258
1775033829801399300,28.7153994140625,0.00023651123046875,-0.00616459921002388,0.0012348517775535583
1775033829852880100,28.766880126953126,-0.0005178451538085938,0.0010616481304168701,0.0018049106001853943
1775033829904360700,28.818360595703126,-0.000476837158203125,0.0010573845356702805,0.001630287617444992
1775033829955841300,28.86984130859375,-0.00665283203125,0.0004513729363679886,0.004570182412862778
1775033830007321900,28.92132177734375,-0.0028085708618164062,0.005568932741880417,0.002004966139793396
1775033830058802700,28.972802734375,0.004370689392089844,-0.003170151263475418,-0.0057833194732666016
1775033830110283300,29.024283203125,-0.0022096633911132812,0.0002796873450279236,0.0011590942740440369
1775033830161763800,29.075763916015624,-0.0056819915771484375,-0.002170344814658165,0.0002928338944911957
1775033830213244400,29.127244384765625,0.0002727508544921875,0.004770461469888687,-0.0026946477591991425
1775033830264725000,29.17872509765625,0.0020780563354492188,-0.002440864220261574,-0.0019531957805156708
1775033830316205800,29.230205810546874,-0.0028486251831054688,-0.0032967664301395416,0.0008723251521587372
1775033830367686400,29.281686279296874,-0.0044403076171875,-0.003397839143872261,0.002636522054672241
1775033830419167000,29.3331669921875,-0.000415802001953125,-0.0022987201809883118,-0.0033759810030460358
1775033830470647600,29.3846474609375,0.0007152557373046875,0.002682441845536232,-0.0008921884000301361
1775033830522128100,29.436128173828124,0.0002918243408203125,0.0030379556119441986,0.005215924233198166
1775033830573608700,29.487608642578124,0.0046539306640625,0.0008040107786655426,-0.00010411068797111511
1775033830625089300,29.53908935546875,0.0057277679443359375,-0.0003225058317184448,-0.0017245300114154816
1775033830676570000,29.590570068359376,0.0008630752563476562,-0.00035266950726509094,0.0032750889658927917
1775033830728050700,29.64205078125,0.0026187896728515625,-0.0017483681440353394,0.0052520595490932465
1775033830779531300,29.69353125,-0.0052776336669921875,0.00016793422400951385,-0.001154385507106781
1775033830831011800,29.74501171875,-0.0000858306884765625,0.0009701196104288101,-0.0013675540685653687
1775033830882492400,29.796492431640626,0.0032110214233398438,0.004805663600564003,-0.0032958239316940308
1775033830933973200,29.84797314453125,0.0014791488647460938,-0.00026218220591545105,-0.00113711878657341
1775033830985453800,29.899453857421875,-0.0008382797241210938,-0.002254260703921318,-0.001209162175655365
1775033831036934400,29.950934326171875,0.001422882080078125,0.001896597445011139,-0.001958504319190979
1775033831088415000,30.0024150390625,-0.0038127899169921875,0.002189360558986664,-0.001563388854265213
1775033831139895600,30.0538955078125,-0.0034961700439453125,0.0036967210471630096,-0.0017900429666042328
1775033831191376400,30.10537646484375,0.00045013427734375,0.0010911598801612854,0.0012920387089252472
1775033831242857000,30.15685693359375,-0.002513885498046875,-0.0018395055085420609,0.0009699873626232147
1775033831294337500,30.208337646484374,0.003909111022949219,0.0021015461534261703,0.0026311948895454407
1775033831345818000,30.259818115234374,-0.00043773651123046875,0.0007724538445472717,-0.00028058141469955444
1775033831397298700,30.311298583984374,0.004352569580078125,-0.0003986526280641556,0.003454834222793579
1775033831448779300,30.362779296875,0.005451202392578125,-0.0006455555558204651,0.0005215667188167572
1775033831500260000,30.414260009765623,-0.0026798248291015625,0.0025466587394475937,-0.00024454668164253235
1775033831551740700,30.46574072265625,0.0022945404052734375,0.001688338816165924,0.001978013664484024
1775033831603221200,30.51722119140625,-0.0022830963134765625,-0.0019764024764299393,0.0007732249796390533
1775033831654701800,30.568701904296876,0.0030260086059570312,-0.001598857343196869,-0.0022540129721164703
1775033831706182400,30.620182373046877,-0.00344085693359375,-0.0031276587396860123,0.0003258809447288513
1775033831757663000,30.6716630859375,-0.0031557083129882812,-0.0006366018205881119,-0.0006465092301368713
1775033831809143600,30.7231435546875,-0.003989219665527344,-0.0011820215731859207,0.0025638416409492493
1775033831860624100,30.7746240234375,-0.0003681182861328125,0.0007819365710020065,-0.0016148872673511505
1775033831912105000,30.82610498046875,0.0018548965454101562,0.0008966643363237381,-0.0008214004337787628
1775033831963585500,30.87758544921875,0.00133514404296875,-0.001970561221241951,0.0035955049097537994
1775033832015066000,30.929066162109375,0.0015888214111328125,0.0003764387220144272,-0.0011290796101093292
1775033832066546700,30.980546630859376,0.00035953521728515625,0.00006433390080928802,-0.0035376474261283875
1775033832118027300,31.03202734375,-0.0007677078247070312,0.0014171693474054337,0.0001979433000087738
1775033832169507800,31.0835078125,-0.0025320053100585938,0.0011467579752206802,-0.0011770650744438171
1775033832220988700,31.13498876953125,0.0035295486450195312,-0.0016460493206977844,0.00029721111059188843
1775033832272469200,31.18646923828125,-0.0026149749755859375,0.001453489065170288,-0.00008448958396911621
1775033832323949800,31.23794970703125,0.0008945465087890625,-0.0016496572643518448,0.004589010030031204
1775033832375430400,31.289430419921874,-0.003200531005859375,-0.0029844921082258224,-0.004016764461994171
1775033832426911000,31.340910888671875,-0.0029344558715820312,-0.0012835301458835602,-0.0008434243500232697
1775033832478391600,31.3923916015625,-0.00086212158203125,0.0016905423253774643,0.001429188996553421
1775033832529872100,31.4438720703125,0.007618904113769531,0.00007755868136882782,-0.0010642670094966888
1775033832581353000,31.49535302734375,0.0011339187622070312,0.002572830766439438,-0.0015220940113067627
1775033832632833500,31.54683349609375,0.0039653778076171875,0.003445317968726158,-0.0006079152226448059
1775033832684314000,31.598314208984377,-0.0018491744995117188,0.0008132737129926682,-0.0024716146290302277
1775033832735794700,31.649794677734373,0.00013256072998046875,-0.001092173159122467,0.0003969743847846985
1775033832787275300,31.701275146484374,-0.0009746551513671875,-0.004159022122621536,0.0007383637130260468
1775033832838755800,31.752755859375,-0.003086090087890625,-0.0012636762112379074,-0.0013316944241523743
1775033832890236400,31.804236328125,-0.005023002624511719,0.003807295113801956,-0.0002573952078819275
1775033832941717000,31.855717041015627,0.0027065277099609375,0.0006026625633239746,-0.0037877485156059265
1775033832993197600,31.907197509765624,0.00394439697265625,0.0004483591765165329,0.0016067996621131897
1775033833044678400,31.958678466796876,-0.0029649734497070312,0.0019104797393083572,0.0017052292823791504
1775033833096159000,32.010158935546876,-0.004546165466308594,-0.0008655786514282227,-0.0003029666841030121
1775033833147639600,32.0616396484375,0.001316070556640625,-0.0034102927893400192,-0.001222960650920868
1775033833199120100,32.1131201171875,0.0030345916748046875,-0.003834094852209091,0.0003029927611351013
1775033833250600700,32.1646005859375,0.004611015319824219,0.0011325366795063019,-0.002414349466562271
1775033833302081300,32.21608129882812,0.001667022705078125,0.0037294160574674606,-0.0005186907947063446
1775033833353561900,32.26756176757812,0.0044536590576171875,-0.001025669276714325,-0.004582688212394714
1775033833405042400,32.31904248046875,0.0007915496826171875,-0.0027306415140628815,0.0020702295005321503
1775033833456523000,32.37052294921875,0.0003604888916015625,0.00287516787648201,-0.0020669326186180115
1775033833508003800,32.42200390625,0.00033092498779296875,-0.0038269218057394028,-0.0005653798580169678
1775033833559484400,32.473484375,-0.0011587142944335938,0.002283848822116852,0.003877338021993637
1775033833610965000,32.52496508789063,0.0062503814697265625,-0.005005033686757088,0.0046126991510391235
1775033833662445600,32.57644555664063,-0.0026807785034179688,-0.0007997620850801468,0.0008520670235157013
1775033833713926100,32.62792602539062,0.00046825408935546875,-0.0007423199713230133,0.0017438121140003204
1775033833765406700,32.67940673828125,0.00006389617919921875,-0.003932569175958633,0.0020199939608573914
1775033833816887300,32.73088720703125,-0.0006732940673828125,-0.003471953794360161,0.002178288996219635
1775033833868368000,32.782367919921874,-0.002079010009765625,0.0018787253648042679,0.0030544139444828033
1775033833919848400,32.833848388671875,-0.0000782012939453125,0.001299344003200531,0.0010282285511493683
1775033833971329000,32.8853291015625,-0.0026311874389648438,-0.0009177234023809433,-0.0013367049396038055
1775033834022809900,32.93680981445313,-0.0013151168823242188,-0.0007564052939414978,-0.000580132007598877
1775033834074290400,32.98829052734375,0.0020856857299804688,0.001808367669582367,0.0014806687831878662
1775033834125771000,33.03977099609375,-0.003208160400390625,0.0007408745586872101,0.0013186223804950714
1775033834177251600,33.09125146484375,0.0029087066650390625,-0.003988012671470642,-0.0029461942613124847
1775033834228732200,33.14273217773437,0.0012035369873046875,0.0030094217509031296,0.00009048730134963989
1775033834280212700,33.194212646484374,0.001468658447265625,0.0027960408478975296,-0.0016885623335838318
1775033834331693300,33.245693359375,0.0039043426513671875,-0.0003236941993236542,-0.0008080750703811646
1775033834383174000,33.297173828125,-0.0037336349487304688,0.0006141364574432373,0.0008253268897533417
1775033834434654500,33.34865454101563,0.0009632110595703125,0.0010129492729902267,-0.0007439889013767242
1775033834486135300,33.40013525390625,0.0023431777954101562,0.003301883116364479,0.002711780369281769
1775033834537616000,33.45161596679687,-0.0037012100219726562,0.00013956986367702484,-0.0019870027899742126
1775033834589096400,33.50309643554687,-0.0008335113525390625,-0.0012016445398330688,-0.0011290796101093292
1775033834640577000,33.55457690429687,-0.0033254623413085938,0.0039252713322639465,-0.0007078163325786591
1775033834692057600,33.6060576171875,0.0009737014770507812,0.002491425722837448,0.000043783336877822876
1775033834743538200,33.6575380859375,-0.0027627944946289062,0.004101419821381569,0.0016398578882217407
1775033834795018800,33.709018798828126,-0.001068115234375,0.0008726939558982849,-0.0031120330095291138
1775033834846499300,33.760499267578126,0.0001163482666015625,-0.004551533609628677,0.002592470496892929
1775033834897980000,33.81197998046875,-0.0075702667236328125,0.003860490396618843,0.0019722096621990204
1775033834949460500,33.86346044921875,0.000736236572265625,0.0010174084454774857,-0.002157215029001236
1775033835000941000,33.91494116210937,-0.0022478103637695312,-0.0030042454600334167,-0.0019682683050632477
1775033835052421600,33.96642163085937,0.0052490234375,-0.0001100730150938034,-0.001382339745759964
1775033835103902500,34.01790234375,-0.005423545837402344,0.00034949928522109985,0.0007454603910446167
1775033835155383000,34.069383056640625,-0.0024127960205078125,-0.00042100250720977783,-0.0010880492627620697
1775033835206863600,34.120863525390625,0.00254058837890625,0.0026713181287050247,0.0003786906599998474
1775033835258344200,34.17234423828125,0.0023279190063476562,0.0006110444664955139,-0.0010589472949504852
1775033835309824800,34.22382470703125,-0.0029840469360351562,-0.0007696840912103653,0.0014547668397426605
1775033835361305300,34.27530541992188,-0.0005407333374023438,-0.0014467108994722366,0.002980586141347885
1775033835412786000,34.32678588867188,-0.00049591064453125,0.0004444606602191925,-0.002248566597700119
1775033835464266500,34.3782666015625,-0.005207061767578125,0.004371240735054016,-0.0036094188690185547
1775033835515747000,34.4297470703125,0.0007104873657226562,-0.00024740956723690033,-0.0013297460973262787
1775033835567227600,34.4812275390625,0.0002841949462890625,-0.003750462085008621,0.0002998150885105133
1775033835618708500,34.53270849609375,0.0035505294799804688,0.0010815951973199844,0.0034787505865097046
1775033835670189000,34.58418896484375,-0.002227783203125,-0.0012119878083467484,0.0001783519983291626
1775033835721669600,34.63566967773438,0.00344085693359375,0.0051887426525354385,-0.002258285880088806
1775033835773150200,34.68715014648438,-0.00013637542724609375,-0.0018345899879932404,-0.005811341106891632
1775033835824630800,34.738630859375,0.0038976669311523438,-0.0018816571682691574,0.0008492358028888702
1775033835876111400,34.790111328125,-0.0030088424682617188,-0.0018633082509040833,-0.004696182906627655
1775033835927592000,34.84159204101562,0.0027246475219726562,0.005735626444220543,-0.002055075019598007
1775033835979072500,34.893072509765624,0.00286102294921875,0.004929279908537865,0.005578916519880295
1775033836030553000,34.944552978515624,-0.000301361083984375,0.00007484294474124908,0.0015142299234867096
1775033836082033700,34.99603369140625,-0.0002765655517578125,-0.00030634738504886627,0.0005231127142906189
1775033836133514200,35.04751416015625,0.000843048095703125,0.002553146332502365,-0.004772108048200607
1775033836184994800,35.09899487304688,0.0000400543212890625,0.003522353246808052,0.003771599382162094
1775033836236475400,35.15047534179688,-0.0010595321655273438,0.0014853756874799728,0.0001763477921485901
1775033836287956000,35.2019560546875,-0.0009698867797851562,0.0032747089862823486,-0.005502983927726746
1775033836339436800,35.25343676757812,0.006787300109863281,-0.00007484853267669678,0.00017720460891723633
1775033836390917400,35.30491748046875,-0.0018215179443359375,0.0035294201225042343,-0.002069365233182907
1775033836442398000,35.35639794921875,0.0027179718017578125,0.0008083656430244446,0.0011650994420051575
1775033836493878500,35.40787841796875,-0.0018939971923828125,-0.0020517148077487946,-0.0034993737936019897
1775033836545359000,35.459359130859376,0.002285003662109375,0.002401849254965782,-0.001323983073234558
1775033836596839700,35.510839599609376,-0.0026578903198242188,0.002239098772406578,-0.0017600469291210175
1775033836648320300,35.5623203125,0.0004901885986328125,-0.0035835783928632736,-0.0004266314208507538
1775033836699800800,35.61380078125,0.00044918060302734375,-0.0018318388611078262,0.0007139742374420166
1775033836751281400,35.66528149414062,-0.0025148391723632812,0.00037622079253196716,0.0000742599368095398
1775033836802762000,35.71676196289062,0.0017156600952148438,0.004451397806406021,0.005194678902626038
1775033836854242600,35.76824267578125,0.0037670135498046875,0.0012405067682266235,-0.000029005110263824463
1775033836905723100,35.81972314453125,-0.000568389892578125,-0.0011611860245466232,0.0002055913209915161
1775033836957203700,35.87120361328125,-0.005274772644042969,0.00034126080572605133,-0.0005817636847496033
1775033837008684300,35.922684326171876,-0.0030069351196289062,0.002909218892455101,0.0016690418124198914
1775033837060164900,35.974164794921876,-0.004218101501464844,-0.0009043049067258835,0.00044229254126548767
1775033837111645700,36.02564575195313,-0.006060600280761719,-0.0026666056364774704,-0.004020065069198608
1775033837163126300,36.07712622070313,0.0010242462158203125,0.002168690785765648,-0.0032626092433929443
1775033837214606800,36.12860693359375,0.0042285919189453125,-0.0032348912209272385,-0.0011065378785133362
1775033837266087400,36.18008740234375,-0.0030698776245117188,0.002508634701371193,-0.0008298307657241821
1775033837317568000,36.231568115234374,0.0034017562866210938,-0.0012385565787553787,-0.00043307244777679443
1775033837369048600,36.283048583984375,0.0056781768798828125,0.0017317607998847961,-0.001119222491979599
1775033837420529200,36.334529052734375,0.0026464462280273438,-0.0031262822449207306,0.003544796258211136
1775033837472009700,36.386009765625,-0.0015964508056640625,-0.0013190750032663345,0.001207459717988968
1775033837523490300,36.437490234375,-0.002559661865234375,-0.0030944570899009705,-0.00012325868010520935
1775033837574971000,36.48897094726563,-0.0005197525024414062,0.00007794983685016632,-0.00339420884847641
1775033837626451500,36.54045141601563,-0.0012073516845703125,0.003398982807993889,-0.0012271776795387268
1775033837677932000,36.59193212890625,-0.0036640167236328125,-0.00045513734221458435,-0.0006220117211341858
1775033837729412600,36.64341259765625,0.0006618499755859375,0.000669257715344429,-0.0009267032146453857
1775033837780893200,36.69489306640625,-0.0015869140625,0.0013343896716833115,-0.001571565866470337
1775033837832373800,36.746373779296874,0.0011043548583984375,-0.0004254095256328583,-0.0013839974999427795
1775033837883854300,36.797854248046875,0.00028133392333984375,-0.0016383398324251175,-0.0030406005680561066
1775033837935335000,36.8493349609375,-0.0015707015991210938,-0.000049347057938575745,-0.000998023897409439
1775033837986815500,36.9008154296875,-0.00034332275390625,-0.0008810441941022873,-0.0007638074457645416
1775033838038296000,36.95229614257813,-0.0010471343994140625,0.00010319054126739502,-0.0017879605293273926
1775033838089776600,37.00377661132813,0.0034265518188476562,-0.0017902925610542297,0.0025332123041152954
1775033838141257200,37.05525732421875,0.004969596862792969,0.0018622931092977524,-0.0022791102528572083
1775033838192737800,37.10673779296875,-0.0038537979125976562,-0.004009345546364784,-0.0013494119048118591
1775033838244218600,37.158218505859374,0.0012197494506835938,0.0006071366369724274,0.0050812214612960815
1775033838295699200,37.20969921875,0.001483917236328125,-0.0018695704638957977,0.0002794340252876282
1775033838347179800,37.2611796875,0.0009946823120117188,0.0012479834258556366,-0.003437943756580353
1775033838398660400,37.31266040039063,-0.00091552734375,-0.00005719810724258423,0.003565870225429535
1775033838450141000,37.36414086914063,-0.0019350051879882812,0.0019412487745285034,-0.002937067300081253
1775033838501621500,37.41562158203125,0.0026121139526367188,-0.00047077611088752747,0.0006537362933158875
1775033838553102000,37.46710205078125,-0.00272369384765625,-0.003541572019457817,-0.0024115294218063354
1775033838604582700,37.51858276367187,0.0022554397583007812,-0.002937905490398407,-0.00046893954277038574
1775033838656063200,37.57006323242187,0.00206756591796875,0.0020501315593719482,0.004330910742282867
1775033838707543800,37.62154370117187,-0.0006647109985351562,-0.0009128004312515259,0.0012439340353012085
1775033838759024400,37.6730244140625,0.0034093856811523438,0.0017124377191066742,-0.00044165924191474915
1775033838810505000,37.7245048828125,-0.004184722900390625,0.0009232237935066223,-0.003049667924642563
1775033838861985500,37.775985595703126,0.0034742355346679688,0.0034894924610853195,0.002379186451435089
1775033838913466000,37.82746606445313,0.0017223358154296875,-0.00582195445895195,0.0010455586016178131
1775033838964946700,37.87894677734375,0.0008478164672851562,0.0040167514234781265,-0.0020053349435329437
1775033839016427300,37.93042724609375,-0.005436897277832031,0.002893630415201187,0.0035117976367473602
1775033839067907800,37.98190795898437,0.0008668899536132812,0.0015925560146570206,-0.0013480745255947113
1775033839119388400,38.03338842773437,-0.0021305084228515625,0.0028174463659524918,-0.001592542976140976
1775033839170869000,38.08486889648437,-0.000492095947265625,-0.0012249387800693512,-0.0025479234755039215
1775033839222349600,38.136349609375,-0.0019121170043945312,-0.0005440320819616318,0.00023229792714118958
1775033839273830100,38.187830078125,-0.0006580352783203125,-0.00036726705729961395,-0.003751426935195923
1775033839325310700,38.239310791015626,0.004149436950683594,0.0015285871922969818,-0.001649472862482071
1775033839376791300,38.290791259765626,0.0023393630981445312,-0.002122027799487114,0.002247307449579239
1775033839428271900,38.34227197265625,-0.0015115737915039062,0.0009695477783679962,0.0006539486348628998
1775033839479752400,38.39375244140625,-0.00431060791015625,-0.0008058063685894012,-0.0019513294100761414
1775033839531233000,38.44523291015625,-0.0010242462158203125,0.0012073945254087448,0.0020993128418922424
1775033839582713600,38.49671362304687,0.0016193389892578125,0.0001282729208469391,0.0011074282228946686
1775033839634194200,38.54819409179687,0.00002002716064453125,-0.0024038031697273254,-0.0013927966356277466
1775033839685674800,38.5996748046875,-0.0010766983032226562,-0.0032149534672498703,-0.0024596713483333588
1775033839737155300,38.6511552734375,-0.005741119384765625,0.0045910608023405075,-0.0020222291350364685
1775033839788636000,38.702635986328126,-0.0027036666870117188,-0.001792948693037033,0.0016686245799064636
1775033839840116500,38.754116455078126,0.001178741455078125,0.001954510807991028,-0.00043150782585144043
1775033839891597000,38.80559716796875,-0.0018453598022460938,-0.0021444037556648254,-0.003406338393688202
1775033839943077600,38.85707763671875,0.0012331008911132812,-0.0005610734224319458,-0.00289013609290123
1775033839994558200,38.90855810546875,0.0033235549926757812,-0.0028126146644353867,0.0010153241455554962
1775033840046038800,38.96003881835937,0.0030460357666015625,0.0006072334945201874,0.001399897038936615
1775033840097519400,39.01151928710937,-0.0045185089111328125,0.0005942396819591522,0.0020705722272396088
1775033840149000000,39.063,-0.001949310302734375,0.005924012511968613,-0.0004291944205760956
1775033840200480500,39.11448046875,0.0000400543212890625,-0.0014308691024780273,-0.0003843754529953003
1775033840251961000,39.165961181640625,0.0033273696899414062,0.0008245464414358139,0.0006108507513999939
1775033840303441700,39.217441650390626,0.0015878677368164062,-0.004548041149973869,0.000061005353927612305
1775033840354922200,39.268922119140626,0.0014562606811523438,0.0002547893673181534,0.0011143982410430908
1775033840406402800,39.32040283203125,-0.002685546875,0.0006361063569784164,-0.0010342597961425781
1775033840457883400,39.37188330078125,0.0008268356323242188,-0.001431277021765709,-0.0024484507739543915
1775033840509364000,39.42336401367187,0.0029516220092773438,0.0007765423506498337,0.0018806159496307373
1775033840560844500,39.47484448242187,0.0008792877197265625,-0.0022221263498067856,0.0022263824939727783
1775033840612325000,39.5263251953125,0.00007534027099609375,0.006584636867046356,0.0018599070608615875
1775033840663805700,39.5778056640625,-0.0013933181762695312,-0.0000941641628742218,-0.001671023666858673
1775033840715286300,39.629286376953125,0.0031070709228515625,-0.0010031312704086304,0.0002238340675830841
1775033840766766800,39.680766845703126,-0.00007534027099609375,-0.0009293537586927414,-0.0035366155207157135
1775033840818247400,39.732247314453126,-0.004090309143066406,-0.0004961490631103516,-0.0004508495330810547
1775033840869728000,39.78372802734375,-0.0022869110107421875,0.001268584281206131,-0.001135796308517456
1775033840921208600,39.83520849609375,0.00009822845458984375,0.0020600613206624985,-0.00012537837028503418
1775033840972689200,39.88668920898437,0.00045490264892578125,-0.001506619155406952,-0.0019338726997375488
1775033841024169700,39.93816967773437,-0.0014104843139648438,-0.0007075909525156021,0.0011134706437587738
1775033841075650300,39.989650390625,0.0023622512817382812,-0.000658651813864708,0.0018081516027450562
1775033841127131000,40.041130859375,-0.0014905929565429688,0.0015330519527196884,-0.0009406097233295441
1775033841178611500,40.092611572265625,0.0041179656982421875,0.003080839291214943,-0.0005826018750667572
1775033841230092000,40.144092041015625,-0.0039005279541015625,-0.002988038584589958,-0.0010801330208778381
1775033841281572600,40.195572509765626,0.0019073486328125,0.003878837451338768,-0.002633344382047653
1775033841333053200,40.24705322265625,0.0010166168212890625,-0.00025240518152713776,-0.003501705825328827
1775033841384533800,40.29853369140625,-0.00235748291015625,-0.003944313153624535,0.0015038475394248962
1775033841436014300,40.35001440429688,0.000396728515625,-0.0005588140338659286,-0.0004878416657447815
1775033841487495000,40.40149487304687,-0.000732421875,-0.0008406247943639755,0.0018027126789093018
1775033841538975500,40.4529755859375,0.0007915496826171875,-0.004117732867598534,0.0012006834149360657
1775033841590456000,40.5044560546875,0.0025529861450195312,-0.0026876889169216156,0.0008386746048927307
1775033841641936600,40.5559365234375,-0.000949859619140625,-0.004890665411949158,-0.001605294644832611
1775033841693417200,40.607417236328125,-0.004891395568847656,0.0004013422876596451,-0.002112608402967453
1775033841744897800,40.658897705078125,0.00099945068359375,0.00035744719207286835,-0.000783238559961319
1775033841796378400,40.71037841796875,0.004572868347167969,-0.0011918582022190094,-0.003410469740629196
1775033841847859000,40.76185888671875,0.0016298294067382812,0.004523269832134247,-0.00046351179480552673
1775033841899339500,40.81333959960938,-0.0036230087280273438,0.002863943576812744,-0.001925826072692871
1775033841950820000,40.86482006835938,-0.00039768218994140625,-0.0031864382326602936,0.0015811175107955933
1775033842002300700,40.91630078125,0.002246856689453125,-0.05178046226501465,0.10007333755493164
1775033842053781000,40.96778100585937,0.5148992538452148,0.01009869109839201,0.03428516536951065
