time,seconds_elapsed,z,y,x
1775033801156041700,0.070041748046875,0.017715077847242355,-0.46364638209342957,-0.3591884970664978
1775033801207522600,0.1215224609375,-0.012217295356094837,0.2101374864578247,0.11362084746360779
1775033801259003600,0.173003662109375,-0.003665188793092966,0.05070177838206291,0.04214967042207718
1775033801310484500,0.224484375,0.009162971749901772,-0.3958403766155243,-0.21380266547203064
1775033801361965300,0.27596533203125,-0.01893680728971958,0.47952884435653687,0.2981020212173462
1775033801413446100,0.327446044921875,0.0054977829568088055,-0.18570289015769958,-0.12705987691879272
1775033801464927000,0.378927001953125,0.004276053514331579,-0.22235478460788727,-0.12034036219120026
1775033801516407800,0.43040771484375,-0.007330377586185932,0.10506874322891235,0.05803215503692627
1775033801567888600,0.481888671875,-0.006719512399286032,0.08124501258134842,0.04459312930703163
1775033801619369500,0.533369384765625,-0.001832594396546483,-0.028099779039621353,-0.01588248461484909
1775033801713751000,0.6277509765625,-0.003665188793092966,-0.0054977829568088055,-0.004886918235570192
1775033801765231900,0.67923193359375,-0.002443459117785096,-0.006719512399286032,-0.003665188793092966
1775033801816713000,0.730712890625,-0.002443459117785096,-0.006719512399286032,-0.004886918235570192
1775033801868193800,0.78219384765625,-0.002443459117785096,-0.0054977829568088055,-0.0030543238390237093
1775033801919674600,0.833674560546875,-0.002443459117785096,-0.006108647678047419,-0.003665188793092966
1775033802014056200,0.92805615234375,-0.001832594396546483,-0.004886918235570192,-0.004276053514331579
1775033802065537000,0.979537109375,-0.0030543238390237093,-0.006719512399286032,-0.003665188793092966
1775033802117017900,1.031017822265625,-0.002443459117785096,-0.0054977829568088055,-0.003665188793092966
1775033802168498700,1.082498779296875,-0.001832594396546483,-0.006108647678047419,-0.004276053514331579
1775033802219979500,1.1339794921875,-0.001832594396546483,-0.006719512399286032,-0.003665188793092966
1775033802271460400,1.18546044921875,-0.001832594396546483,-0.004276053514331579,-0.003665188793092966
1775033802322941200,1.236941162109375,-0.002443459117785096,-0.006108647678047419,-0.004276053514331579
1775033802374422000,1.288422119140625,-0.0030543238390237093,-0.0054977829568088055,-0.003665188793092966
1775033802425902800,1.33990283203125,-0.002443459117785096,-0.0054977829568088055,-0.004276053514331579
1775033802477383700,1.3913837890625,-0.002443459117785096,-0.006108647678047419,-0.003665188793092966
1775033802528864500,1.442864501953125,-0.002443459117785096,-0.006108647678047419,-0.004886918235570192
1775033802580345300,1.494345458984375,-0.001832594396546483,-0.004886918235570192,-0.004276053514331579
1775033802631826200,1.545826171875,-0.0030543238390237093,-0.0054977829568088055,-0.003665188793092966
1775033802683307300,1.597307373046875,-0.0030543238390237093,-0.006108647678047419,-0.003665188793092966
1775033802734788000,1.6487880859375,-0.002443459117785096,-0.0054977829568088055,-0.004276053514331579
1775033802786269000,1.70026904296875,-0.0030543238390237093,-0.006108647678047419,-0.004276053514331579
1775033802837749800,1.751749755859375,-0.002443459117785096,-0.006108647678047419,-0.003665188793092966
1775033802889230600,1.803230712890625,-0.002443459117785096,-0.006108647678047419,-0.004886918235570192
1775033802940711400,1.85471142578125,-0.002443459117785096,-0.006719512399286032,-0.004276053514331579
1775033802992192300,1.906192138671875,-0.002443459117785096,-0.0054977829568088055,-0.0030543238390237093
1775033803043673000,1.957673095703125,-0.0030543238390237093,-0.006719512399286032,-0.003665188793092966
1775033803095154000,2.00915380859375,-0.001832594396546483,-0.0054977829568088055,-0.0030543238390237093
1775033803146634800,2.060634765625,-0.002443459117785096,-0.006108647678047419,-0.002443459117785096
1775033803198115600,2.112115478515625,-0.0030543238390237093,-0.004276053514331579,-0.003665188793092966
1775033803249596400,2.163596435546875,-0.0030543238390237093,-0.006108647678047419,-0.004276053514331579
1775033803301077200,2.2150771484375,-0.002443459117785096,-0.0054977829568088055,-0.004276053514331579
1775033803352558000,2.26655810546875,-0.002443459117785096,-0.006108647678047419,-0.0030543238390237093
1775033803404039000,2.318038818359375,-0.002443459117785096,-0.0054977829568088055,-0.004276053514331579
1775033803455519700,2.369519775390625,-0.001832594396546483,-0.006108647678047419,-0.003665188793092966
1775033803507000800,2.421000732421875,-0.002443459117785096,-0.006108647678047419,-0.004276053514331579
1775033803558481700,2.472481689453125,-0.002443459117785096,-0.006719512399286032,-0.004276053514331579
1775033803609962500,2.52396240234375,-0.0030543238390237093,-0.006108647678047419,-0.003665188793092966
1775033803661443300,2.575443359375,-0.002443459117785096,-0.004886918235570192,-0.003665188793092966
1775033803712924200,2.626924072265625,-0.001832594396546483,-0.006108647678047419,-0.0030543238390237093
1775033803764405000,2.678405029296875,-0.0030543238390237093,-0.006108647678047419,-0.004276053514331579
1775033803815885800,2.7298857421875,-0.002443459117785096,-0.006719512399286032,-0.001832594396546483
1775033803867366700,2.78136669921875,-0.0030543238390237093,-0.0054977829568088055,-0.0030543238390237093
1775033803918847500,2.832847412109375,-0.0030543238390237093,-0.0054977829568088055,-0.003665188793092966
1775033803970328300,2.884328369140625,-0.002443459117785096,-0.006719512399286032,-0.004886918235570192
1775033804021809200,2.93580908203125,-0.002443459117785096,-0.006108647678047419,-0.0030543238390237093
1775033804073290000,2.9872900390625,-0.002443459117785096,-0.004276053514331579,-0.003665188793092966
1775033804124770800,3.038770751953125,-0.002443459117785096,-0.0054977829568088055,-0.003665188793092966
1775033804176251600,3.090251708984375,-0.002443459117785096,-0.006108647678047419,-0.004276053514331579
1775033804227732500,3.141732421875,-0.002443459117785096,-0.006719512399286032,-0.004276053514331579
1775033804279213300,3.19321337890625,-0.002443459117785096,-0.007330377586185932,-0.003665188793092966
1775033804373595000,3.287594970703125,-0.002443459117785096,-0.004886918235570192,-0.004276053514331579
1775033804425075700,3.33907568359375,-0.002443459117785096,-0.0054977829568088055,-0.004276053514331579
1775033804476556500,3.390556640625,-0.001832594396546483,-0.006719512399286032,-0.003665188793092966
1775033804528037400,3.442037353515625,-0.0030543238390237093,-0.006108647678047419,-0.0030543238390237093
1775033804579518200,3.493518310546875,-0.0030543238390237093,-0.0054977829568088055,-0.004886918235570192
1775033804630999000,3.5449990234375,-0.002443459117785096,-0.006108647678047419,-0.004886918235570192
1775033804682479900,3.59647998046875,-0.001221729558892548,-0.006719512399286032,-0.004886918235570192
1775033804733960700,3.647960693359375,-0.001832594396546483,-0.0054977829568088055,-0.0030543238390237093
1775033804785441500,3.699441650390625,-0.002443459117785096,-0.0054977829568088055,-0.003665188793092966
1775033804836922400,3.75092236328125,-0.0030543238390237093,-0.0054977829568088055,-0.004276053514331579
1775033804888403200,3.8024033203125,-0.002443459117785096,-0.004886918235570192,-0.004276053514331579
1775033804939884000,3.853884033203125,-0.002443459117785096,-0.0054977829568088055,-0.003665188793092966
1775033805034265600,3.948265625,-0.002443459117785096,-0.006108647678047419,-0.003665188793092966
1775033805085746400,3.999746337890625,-0.002443459117785096,-0.006108647678047419,-0.004276053514331579
1775033805137227300,4.051227294921875,-0.001832594396546483,-0.006108647678047419,-0.003665188793092966
1775033805188708000,4.1027080078125,-0.002443459117785096,-0.006108647678047419,-0.004276053514331579
1775033805240189000,4.15418896484375,-0.002443459117785096,-0.0054977829568088055,-0.004276053514331579
1775033805291669800,4.205669677734375,-0.002443459117785096,-0.004886918235570192,-0.0030543238390237093
1775033805343150600,4.257150634765625,-0.002443459117785096,-0.006108647678047419,-0.003665188793092966
1775033805394631400,4.30863134765625,-0.002443459117785096,-0.006719512399286032,-0.004276053514331579
1775033805446112300,4.3601123046875,-0.001832594396546483,-0.006108647678047419,-0.003665188793092966
1775033805497593000,4.411593017578125,-0.002443459117785096,-0.0054977829568088055,-0.004886918235570192
1775033805549074000,4.463073974609375,-0.002443459117785096,-0.0054977829568088055,-0.003665188793092966
1775033805600554800,4.5145546875,-0.002443459117785096,-0.0054977829568088055,-0.0030543238390237093
1775033805652035600,4.56603564453125,-0.002443459117785096,-0.006108647678047419,-0.0030543238390237093
1775033805703516400,4.617516357421875,-0.002443459117785096,-0.0054977829568088055,-0.0030543238390237093
1775033805754997200,4.668997314453125,-0.001832594396546483,-0.006108647678047419,-0.003665188793092966
1775033805806478000,4.72047802734375,-0.002443459117785096,-0.006108647678047419,-0.004276053514331579
1775033805857959000,4.771958984375,-0.002443459117785096,-0.006108647678047419,-0.004276053514331579
1775033805909439700,4.823439697265625,-0.001832594396546483,-0.0054977829568088055,-0.0030543238390237093
1775033805960920600,4.874920654296875,-0.002443459117785096,-0.0054977829568088055,-0.003665188793092966
1775033806055302000,4.969302001953125,-0.001832594396546483,-0.006108647678047419,-0.004276053514331579
1775033806106782700,5.02078271484375,-0.002443459117785096,-0.006108647678047419,-0.004276053514331579
1775033806158263600,5.072263671875,-0.002443459117785096,-0.0054977829568088055,-0.003665188793092966
1775033806209744400,5.123744384765625,-0.002443459117785096,-0.0054977829568088055,-0.003665188793092966
1775033806261225200,5.17522509765625,-0.002443459117785096,-0.006108647678047419,-0.004276053514331579
1775033806312706000,5.2267060546875,-0.0030543238390237093,-0.0054977829568088055,-0.004276053514331579
1775033806364187000,5.278186767578125,-0.002443459117785096,-0.006108647678047419,-0.004276053514331579
1775033806415667700,5.329667724609375,-0.001832594396546483,-0.006108647678047419,-0.003665188793092966
1775033806467148500,5.3811484375,-0.0030543238390237093,-0.006108647678047419,-0.0030543238390237093
1775033806518629400,5.43262939453125,-0.002443459117785096,-0.006108647678047419,-0.004276053514331579
1775033806570110200,5.484110107421875,-0.001832594396546483,-0.006719512399286032,-0.004276053514331579
1775033806621591000,5.535591064453125,-0.0030543238390237093,-0.0054977829568088055,-0.003665188793092966
1775033806673071900,5.58707177734375,-0.002443459117785096,-0.006108647678047419,-0.003665188793092966
1775033806724552700,5.638552734375,-0.002443459117785096,-0.0054977829568088055,-0.0030543238390237093
1775033806776033500,5.690033447265625,-0.002443459117785096,-0.0054977829568088055,-0.003665188793092966
1775033806827514400,5.741514404296875,-0.002443459117785096,-0.004886918235570192,-0.003665188793092966
1775033806878995000,5.792994873046875,-0.002443459117785096,-0.006108647678047419,-0.003665188793092966
1775033806930475800,5.844475830078125,-0.002443459117785096,-0.006108647678047419,-0.004276053514331579
1775033806981956600,5.89595654296875,-0.0030543238390237093,-0.0054977829568088055,-0.0030543238390237093
1775033807033437400,5.9474375,-0.002443459117785096,-0.004886918235570192,-0.003665188793092966
1775033807084918300,5.998918212890625,-0.002443459117785096,-0.006108647678047419,-0.003665188793092966
1775033807136399000,6.050399169921875,-0.002443459117785096,-0.0054977829568088055,-0.004276053514331579
1775033807187880000,6.1018798828125,-0.003665188793092966,-0.004886918235570192,-0.003665188793092966
1775033807239360800,6.15336083984375,-0.002443459117785096,-0.006108647678047419,-0.003665188793092966
1775033807333742300,6.247742431640625,-0.001832594396546483,-0.0054977829568088055,-0.004276053514331579
1775033807385223000,6.299222900390625,-0.0030543238390237093,-0.006719512399286032,-0.003665188793092966
1775033807436703700,6.350703857421875,-0.0030543238390237093,-0.006108647678047419,-0.003665188793092966
1775033807488184600,6.4021845703125,-0.002443459117785096,-0.004886918235570192,-0.004886918235570192
1775033807539665400,6.45366552734375,-0.0030543238390237093,-0.004886918235570192,-0.0030543238390237093
1775033807591146200,6.505146240234375,-0.002443459117785096,-0.0054977829568088055,-0.003665188793092966
1775033807642627000,6.556626953125,-0.0030543238390237093,-0.004886918235570192,-0.004276053514331579
1775033807694108000,6.60810791015625,-0.002443459117785096,-0.006108647678047419,-0.003665188793092966
1775033807745588700,6.659588623046875,-0.0030543238390237093,-0.006108647678047419,-0.0030543238390237093
1775033807797069600,6.711069580078125,-0.002443459117785096,-0.0054977829568088055,-0.004886918235570192
1775033807848550400,6.76255029296875,-0.0030543238390237093,-0.006108647678047419,-0.004886918235570192
1775033807900031000,6.814031005859375,-0.001832594396546483,-0.006719512399286032,-0.004276053514331579
1775033807951511800,6.86551171875,-0.002443459117785096,-0.004886918235570192,-0.003665188793092966
1775033808002992600,6.91699267578125,-0.001832594396546483,-0.006108647678047419,-0.003665188793092966
1775033808054473500,6.968473388671875,-0.002443459117785096,-0.006108647678047419,-0.003665188793092966
1775033808105954300,7.019954345703125,-0.002443459117785096,-0.006108647678047419,-0.004276053514331579
1775033808157435100,7.07143505859375,-0.001832594396546483,-0.004886918235570192,-0.0030543238390237093
1775033808208916000,7.122916015625,-0.002443459117785096,-0.006108647678047419,-0.004276053514331579
1775033808260396800,7.174396728515625,-0.002443459117785096,-0.0054977829568088055,-0.002443459117785096
1775033808311877400,7.22587744140625,-0.001832594396546483,-0.006108647678047419,-0.004276053514331579
1775033808363358200,7.277358154296875,-0.002443459117785096,-0.006108647678047419,-0.0030543238390237093
1775033808414839000,7.328839111328125,-0.001832594396546483,-0.004886918235570192,-0.004276053514331579
1775033808466320000,7.38031982421875,-0.0030543238390237093,-0.0054977829568088055,-0.0030543238390237093
1775033808517800700,7.43180078125,-0.001832594396546483,-0.0054977829568088055,-0.004276053514331579
1775033808569281500,7.483281494140625,-0.002443459117785096,-0.0054977829568088055,-0.004276053514331579
1775033808620762400,7.534762451171875,-0.001221729558892548,-0.006108647678047419,-0.004886918235570192
1775033808672243000,7.586242919921875,-0.002443459117785096,-0.004886918235570192,-0.0030543238390237093
1775033808723723800,7.637723876953125,-0.0030543238390237093,-0.004886918235570192,-0.0030543238390237093
1775033808775204600,7.68920458984375,-0.002443459117785096,-0.0054977829568088055,-0.004276053514331579
1775033808826685400,7.740685546875,-0.002443459117785096,-0.006719512399286032,-0.004276053514331579
1775033808878166300,7.792166259765625,-0.0030543238390237093,-0.006108647678047419,-0.004276053514331579
1775033808929647000,7.843647216796875,-0.002443459117785096,-0.006108647678047419,-0.0030543238390237093
1775033808981128000,7.8951279296875,-0.002443459117785096,-0.0054977829568088055,-0.0030543238390237093
1775033809032608800,7.94660888671875,-0.002443459117785096,-0.006108647678047419,-0.003665188793092966
1775033809084089300,7.99808935546875,-0.002443459117785096,-0.0054977829568088055,-0.004276053514331579
1775033809135570200,8.049570068359374,-0.002443459117785096,-0.006719512399286032,-0.003665188793092966
1775033809187051000,8.101051025390625,-0.0030543238390237093,-0.006108647678047419,-0.0030543238390237093
1775033809238531800,8.15253173828125,-0.002443459117785096,-0.004886918235570192,-0.003665188793092966
1775033809290012700,8.2040126953125,-0.0030543238390237093,-0.006108647678047419,-0.003665188793092966
1775033809341493500,8.255493408203124,-0.002443459117785096,-0.006108647678047419,-0.003665188793092966
1775033809392974000,8.30697412109375,-0.002443459117785096,-0.006108647678047419,-0.004276053514331579
1775033809444455000,8.358454833984375,-0.002443459117785096,-0.0054977829568088055,-0.002443459117785096
1775033809495935700,8.409935791015625,-0.002443459117785096,-0.0054977829568088055,-0.004276053514331579
1775033809547416600,8.46141650390625,-0.002443459117785096,-0.006108647678047419,-0.003665188793092966
1775033809598897400,8.5128974609375,-0.002443459117785096,-0.0054977829568088055,-0.003665188793092966
1775033809650378200,8.564378173828125,-0.002443459117785096,-0.006108647678047419,-0.0030543238390237093
1775033809701858800,8.61585888671875,-0.002443459117785096,-0.0054977829568088055,-0.003665188793092966
1775033809753339600,8.667339599609376,-0.002443459117785096,-0.006108647678047419,-0.004886918235570192
1775033809804820500,8.718820556640624,-0.002443459117785096,-0.0054977829568088055,-0.003665188793092966
1775033809856301300,8.77030126953125,-0.0030543238390237093,-0.007330377586185932,-0.0030543238390237093
1775033809907782100,8.8217822265625,-0.002443459117785096,-0.0054977829568088055,-0.003665188793092966
1775033809959263000,8.873262939453125,-0.002443459117785096,-0.006108647678047419,-0.003665188793092966
1775033810010743600,8.92474365234375,-0.002443459117785096,-0.0054977829568088055,-0.0030543238390237093
1775033810062224400,8.976224365234375,-0.0030543238390237093,-0.006108647678047419,-0.003665188793092966
1775033810113705200,9.027705322265625,-0.002443459117785096,-0.006108647678047419,-0.003665188793092966
1775033810165186000,9.07918603515625,-0.002443459117785096,-0.006719512399286032,-0.004276053514331579
1775033810216667000,9.1306669921875,-0.002443459117785096,-0.0054977829568088055,-0.003665188793092966
1775033810268147700,9.182147705078124,-0.002443459117785096,-0.0054977829568088055,-0.0030543238390237093
1775033810319628300,9.233628173828125,-0.001832594396546483,-0.0054977829568088055,-0.004886918235570192
1775033810414009900,9.328009765625,-0.0030543238390237093,-0.006108647678047419,-0.004276053514331579
1775033810465490700,9.37949072265625,-0.002443459117785096,-0.0054977829568088055,-0.004276053514331579
1775033810516971300,9.43097119140625,-0.002443459117785096,-0.006108647678047419,-0.004276053514331579
1775033810568452000,9.4824521484375,-0.002443459117785096,-0.0054977829568088055,-0.004276053514331579
1775033810619933000,9.533932861328125,-0.002443459117785096,-0.006719512399286032,-0.003665188793092966
1775033810671413800,9.585413818359376,-0.002443459117785096,-0.0054977829568088055,-0.003665188793092966
1775033810722894600,9.63689453125,-0.002443459117785096,-0.0054977829568088055,-0.004276053514331579
1775033810774375400,9.68837548828125,-0.002443459117785096,-0.006108647678047419,-0.004276053514331579
1775033810825856000,9.73985595703125,-0.002443459117785096,-0.004886918235570192,-0.004886918235570192
1775033810877336800,9.7913369140625,-0.003665188793092966,-0.006719512399286032,-0.003665188793092966
1775033810928817700,9.842817626953124,-0.002443459117785096,-0.006108647678047419,-0.003665188793092966
1775033810980298500,9.894298583984375,-0.001832594396546483,-0.0054977829568088055,-0.002443459117785096
1775033811031779000,9.945779052734375,-0.001832594396546483,-0.006108647678047419,-0.002443459117785096
1775033811083260000,9.997260009765625,-0.002443459117785096,-0.006719512399286032,-0.004276053514331579
1775033811134740700,10.04874072265625,-0.002443459117785096,-0.006108647678047419,-0.004276053514331579
1775033811186221600,10.1002216796875,-0.001832594396546483,-0.004886918235570192,-0.003665188793092966
1775033811237702400,10.151702392578125,-0.002443459117785096,-0.006108647678047419,-0.0030543238390237093
1775033811289183000,10.203182861328125,-0.002443459117785096,-0.006108647678047419,-0.004276053514331579
1775033811340663800,10.254663818359376,-0.002443459117785096,-0.004886918235570192,-0.003665188793092966
1775033811392144600,10.30614453125,-0.001832594396546483,-0.0054977829568088055,-0.003665188793092966
1775033811443625500,10.35762548828125,-0.001832594396546483,-0.0054977829568088055,-0.003665188793092966
1775033811495106000,10.40910595703125,-0.002443459117785096,-0.006108647678047419,-0.003665188793092966
1775033811546587000,10.4605869140625,-0.001832594396546483,-0.006719512399286032,-0.003665188793092966
1775033811598067700,10.512067626953124,-0.002443459117785096,-0.0054977829568088055,-0.0030543238390237093
1775033811649548500,10.563548583984375,-0.0030543238390237093,-0.0054977829568088055,-0.004276053514331579
1775033811701029400,10.615029296875,-0.0030543238390237093,-0.006108647678047419,-0.002443459117785096
1775033811752510000,10.666510009765625,-0.001832594396546483,-0.0054977829568088055,-0.003665188793092966
1775033811803990800,10.71799072265625,-0.001832594396546483,-0.006108647678047419,-0.004276053514331579
1775033811855471600,10.7694716796875,-0.002443459117785096,-0.006719512399286032,-0.004276053514331579
1775033811906952400,10.820952392578125,-0.002443459117785096,-0.006719512399286032,-0.0030543238390237093
1775033811958433000,10.87243310546875,-0.002443459117785096,-0.0054977829568088055,-0.003665188793092966
1775033812009913900,10.923913818359376,-0.002443459117785096,-0.006108647678047419,-0.004276053514331579
1775033812061394700,10.975394775390624,-0.002443459117785096,-0.006719512399286032,-0.003665188793092966
1775033812112875500,11.02687548828125,-0.002443459117785096,-0.007330377586185932,-0.003665188793092966
1775033812164356000,11.078356201171875,-0.002443459117785096,-0.006719512399286032,-0.004276053514331579
1775033812215837000,11.1298369140625,-0.001221729558892548,-0.006108647678047419,-0.003665188793092966
1775033812267317800,11.18131787109375,-0.002443459117785096,-0.006108647678047419,-0.003665188793092966
1775033812318798600,11.232798583984374,-0.002443459117785096,-0.0054977829568088055,-0.003665188793092966
1775033812370279200,11.284279052734375,-0.0030543238390237093,-0.006719512399286032,-0.0030543238390237093
1775033812421760000,11.335760009765625,-0.0030543238390237093,-0.006108647678047419,-0.0030543238390237093
1775033812473240800,11.38724072265625,-0.002443459117785096,-0.006108647678047419,-0.003665188793092966
1775033812524721700,11.4387216796875,-0.002443459117785096,-0.004886918235570192,-0.004276053514331579
1775033812576202200,11.4902021484375,-0.002443459117785096,-0.006719512399286032,-0.0030543238390237093
1775033812627683000,11.54168310546875,-0.002443459117785096,-0.007330377586185932,-0.003665188793092966
1775033812679164000,11.593163818359375,-0.002443459117785096,-0.0054977829568088055,-0.0030543238390237093
1775033812730644500,11.64464453125,-0.001832594396546483,-0.0054977829568088055,-0.004276053514331579
1775033812782125300,11.696125244140624,-0.002443459117785096,-0.006108647678047419,-0.004886918235570192
1775033812833606100,11.747606201171875,-0.0030543238390237093,-0.0054977829568088055,-0.003665188793092966
1775033812885087000,11.7990869140625,-0.002443459117785096,-0.004886918235570192,-0.0030543238390237093
1775033812936567600,11.850567626953126,-0.002443459117785096,-0.006108647678047419,-0.004276053514331579
1775033812988048400,11.90204833984375,-0.001832594396546483,-0.006108647678047419,-0.004886918235570192
1775033813039529200,11.953529296875,-0.001832594396546483,-0.006108647678047419,-0.003665188793092966
1775033813091009800,12.005009765625,-0.002443459117785096,-0.0054977829568088055,-0.003665188793092966
1775033813142490600,12.05649072265625,-0.001832594396546483,-0.004886918235570192,-0.002443459117785096
1775033813193971500,12.107971435546874,-0.002443459117785096,-0.006108647678047419,-0.004886918235570192
1775033813245452300,12.159452392578125,-0.002443459117785096,-0.0054977829568088055,-0.004276053514331579
1775033813296932900,12.210932861328125,-0.002443459117785096,-0.0054977829568088055,-0.004276053514331579
1775033813348413700,12.26241357421875,-0.001832594396546483,-0.006719512399286032,-0.003665188793092966
1775033813399894500,12.31389453125,-0.001832594396546483,-0.0054977829568088055,-0.004276053514331579
1775033813451375000,12.365375,-0.002443459117785096,-0.0054977829568088055,-0.003665188793092966
1775033813502856000,12.41685595703125,-0.001832594396546483,-0.006719512399286032,-0.0030543238390237093
1775033813554336800,12.468336669921875,-0.0030543238390237093,-0.0054977829568088055,-0.003665188793092966
1775033813605817300,12.5198173828125,-0.002443459117785096,-0.0054977829568088055,-0.004276053514331579
1775033813657298200,12.571298095703124,-0.0030543238390237093,-0.006108647678047419,-0.003665188793092966
1775033813708779000,12.622779052734375,-0.001832594396546483,-0.006719512399286032,-0.004276053514331579
1775033813760259600,12.674259521484375,-0.002443459117785096,-0.0054977829568088055,-0.004276053514331579
1775033813811740400,12.725740478515625,-0.0030543238390237093,-0.004886918235570192,-0.003665188793092966
1775033813863221200,12.77722119140625,-0.002443459117785096,-0.006719512399286032,-0.004886918235570192
1775033813914701800,12.828701904296874,-0.002443459117785096,-0.0054977829568088055,-0.004886918235570192
1775033813966182700,12.8801826171875,-0.002443459117785096,-0.0054977829568088055,-0.004276053514331579
1775033814017663500,12.93166357421875,-0.002443459117785096,-0.0054977829568088055,-0.003665188793092966
1775033814069144000,12.98314404296875,-0.002443459117785096,-0.004886918235570192,-0.0030543238390237093
1775033814120625000,13.034625,-0.002443459117785096,-0.006108647678047419,-0.004886918235570192
1775033814172105700,13.086105712890625,-0.001832594396546483,-0.006108647678047419,-0.0030543238390237093
1775033814223586300,13.13758642578125,-0.0030543238390237093,-0.0054977829568088055,-0.003665188793092966
1775033814275067100,13.189067138671875,-0.002443459117785096,-0.006108647678047419,-0.003665188793092966
1775033814326548000,13.2405478515625,-0.0030543238390237093,-0.006108647678047419,-0.004276053514331579
1775033814378028500,13.292028564453124,-0.001832594396546483,-0.006719512399286032,-0.004886918235570192
1775033814429509400,13.34350927734375,-0.001832594396546483,-0.0054977829568088055,-0.0030543238390237093
1775033814480990200,13.394990234375,-0.002443459117785096,-0.006108647678047419,-0.003665188793092966
1775033814532470800,13.446470703125,-0.002443459117785096,-0.0054977829568088055,-0.003665188793092966
1775033814583951600,13.49795166015625,-0.002443459117785096,-0.006108647678047419,-0.0030543238390237093
1775033814635432200,13.54943212890625,-0.002443459117785096,-0.006719512399286032,-0.003665188793092966
1775033814686913000,13.6009130859375,-0.001832594396546483,-0.0054977829568088055,-0.0030543238390237093
1775033814738393900,13.652393798828125,-0.001832594396546483,-0.006108647678047419,-0.0030543238390237093
1775033814789874400,13.70387451171875,-0.001221729558892548,-0.006108647678047419,-0.004276053514331579
1775033814841355300,13.755355224609374,-0.002443459117785096,-0.0054977829568088055,-0.003665188793092966
1775033814892836000,13.806836181640625,-0.0030543238390237093,-0.006108647678047419,-0.004886918235570192
1775033814944316700,13.858316650390625,-0.001832594396546483,-0.006108647678047419,-0.004276053514331579
1775033814995797500,13.909797607421876,-0.002443459117785096,-0.006108647678047419,-0.004276053514331579
1775033815047278000,13.961278076171874,-0.002443459117785096,-0.0054977829568088055,-0.004276053514331579
1775033815098759000,14.012759033203125,-0.002443459117785096,-0.0054977829568088055,-0.003665188793092966
1775033815150239700,14.06423974609375,-0.002443459117785096,-0.0054977829568088055,-0.003665188793092966
1775033815201720300,14.11572021484375,-0.002443459117785096,-0.006108647678047419,-0.004886918235570192
1775033815253201200,14.167201171875,-0.002443459117785096,-0.006719512399286032,-0.003665188793092966
1775033815304682000,14.218681884765624,-0.002443459117785096,-0.007941242307424545,-0.004886918235570192
1775033815356162600,14.27016259765625,-0.002443459117785096,-0.006719512399286032,-0.003665188793092966
1775033815407643400,14.321643310546875,-0.002443459117785096,-0.006719512399286032,-0.003665188793092966
1775033815459124000,14.3731240234375,-0.002443459117785096,-0.0054977829568088055,-0.004886918235570192
1775033815510604800,14.424604736328124,-0.002443459117785096,-0.0054977829568088055,-0.003665188793092966
1775033815562085600,14.476085693359375,-0.002443459117785096,-0.006108647678047419,-0.003665188793092966
1775033815613566200,14.527566162109375,-0.002443459117785096,-0.0054977829568088055,-0.003665188793092966
1775033815665047000,14.579047119140625,-0.0030543238390237093,-0.0054977829568088055,-0.004276053514331579
1775033815716527900,14.63052783203125,-0.002443459117785096,-0.0054977829568088055,-0.004276053514331579
1775033815768008400,14.682008544921874,-0.002443459117785096,-0.0054977829568088055,-0.003665188793092966
1775033815819489300,14.7334892578125,-0.002443459117785096,-0.004886918235570192,-0.004886918235570192
1775033815870969900,14.784969970703125,-0.002443459117785096,-0.006108647678047419,-0.004276053514331579
1775033815922450700,14.83645068359375,-0.001832594396546483,-0.004886918235570192,-0.003665188793092966
1775033815973931500,14.887931640625,-0.0030543238390237093,-0.006108647678047419,-0.0030543238390237093
1775033816025412000,14.939412109375,-0.001832594396546483,-0.006108647678047419,-0.0030543238390237093
1775033816076893000,14.990892822265625,-0.001832594396546483,-0.0054977829568088055,-0.003665188793092966
1775033816128373500,15.04237353515625,-0.001832594396546483,-0.006108647678047419,-0.003665188793092966
1775033816179854300,15.093854248046876,-0.002443459117785096,-0.0054977829568088055,-0.003665188793092966
1775033816231335000,15.1453349609375,-0.002443459117785096,-0.0054977829568088055,-0.0030543238390237093
1775033816282815700,15.196815673828125,-0.0030543238390237093,-0.003665188793092966,-0.0030543238390237093
1775033816334296600,15.248296630859375,-0.002443459117785096,-0.006108647678047419,-0.004276053514331579
1775033816385777200,15.299777099609376,-0.002443459117785096,-0.004276053514331579,-0.0030543238390237093
1775033816437258000,15.351258056640624,-0.001832594396546483,-0.0054977829568088055,-0.003665188793092966
1775033816488738600,15.402738525390625,-0.002443459117785096,-0.006108647678047419,-0.003665188793092966
1775033816540219400,15.454219482421875,-0.002443459117785096,-0.0054977829568088055,-0.004276053514331579
1775033816591700200,15.5057001953125,-0.0030543238390237093,-0.0054977829568088055,-0.003665188793092966
1775033816643180800,15.557180908203126,-0.003665188793092966,-0.006108647678047419,-0.004886918235570192
1775033816694661600,15.60866162109375,-0.002443459117785096,-0.006719512399286032,-0.003665188793092966
1775033816746142200,15.66014208984375,-0.002443459117785096,-0.006719512399286032,-0.003665188793092966
1775033816797623000,15.711623046875,-0.002443459117785096,-0.0054977829568088055,-0.003665188793092966
1775033816849104000,15.763103759765626,-0.002443459117785096,-0.006719512399286032,-0.004276053514331579
1775033816900584400,15.81458447265625,-0.002443459117785096,-0.0054977829568088055,-0.004276053514331579
1775033816952065300,15.866065185546875,-0.002443459117785096,-0.006108647678047419,-0.004276053514331579
1775033817003545900,15.9175458984375,-0.0030543238390237093,-0.006108647678047419,-0.004276053514331579
1775033817055026700,15.969026611328125,-0.002443459117785096,-0.006108647678047419,-0.003665188793092966
1775033817106507300,16.02050732421875,-0.0030543238390237093,-0.007330377586185932,-0.004276053514331579
1775033817157988000,16.071988037109374,-0.002443459117785096,-0.006108647678047419,-0.003665188793092966
1775033817209468700,16.12346875,-0.002443459117785096,-0.0054977829568088055,-0.004276053514331579
1775033817260949500,16.174949462890623,-0.002443459117785096,-0.006108647678047419,-0.004886918235570192
1775033817312430300,16.226430419921876,-0.002443459117785096,-0.006719512399286032,-0.0030543238390237093
1775033817363911000,16.277910888671876,-0.002443459117785096,-0.006108647678047419,-0.004276053514331579
1775033817415391700,16.329391845703125,-0.001832594396546483,-0.0054977829568088055,-0.003665188793092966
1775033817466872300,16.380872314453125,-0.003665188793092966,-0.006108647678047419,-0.0030543238390237093
1775033817518353200,16.432353271484374,-0.002443459117785096,-0.0054977829568088055,-0.004276053514331579
1775033817569833700,16.483833740234374,-0.002443459117785096,-0.006108647678047419,-0.003665188793092966
1775033817621314600,16.535314453125,-0.002443459117785096,-0.0054977829568088055,-0.003665188793092966
1775033817672795100,16.586795166015627,-0.002443459117785096,-0.006108647678047419,-0.003665188793092966
1775033817724276000,16.63827587890625,-0.002443459117785096,-0.007330377586185932,-0.003665188793092966
1775033817775756500,16.689756591796876,-0.0030543238390237093,-0.006108647678047419,-0.003665188793092966
1775033817827237400,16.7412373046875,-0.001832594396546483,-0.006108647678047419,-0.004276053514331579
1775033817878718200,16.79271826171875,-0.002443459117785096,-0.006108647678047419,-0.0030543238390237093
1775033817930198800,16.84419873046875,-0.001832594396546483,-0.0054977829568088055,-0.004276053514331579
1775033817981679600,16.8956796875,-0.002443459117785096,-0.006108647678047419,-0.004276053514331579
1775033818033160200,16.94716015625,-0.002443459117785096,-0.0054977829568088055,-0.0030543238390237093
1775033818084641000,16.99864111328125,-0.002443459117785096,-0.006108647678047419,-0.004276053514331579
1775033818136121600,17.05012158203125,-0.002443459117785096,-0.006108647678047419,-0.003665188793092966
1775033818187602400,17.1016025390625,-0.001832594396546483,-0.0054977829568088055,-0.004276053514331579
1775033818239083000,17.1530830078125,-0.002443459117785096,-0.004886918235570192,-0.004276053514331579
1775033818333464300,17.24746435546875,-0.002443459117785096,-0.006108647678047419,-0.0030543238390237093
1775033818384945200,17.298945068359377,-0.002443459117785096,-0.004886918235570192,-0.004276053514331579
1775033818436425700,17.35042578125,-0.0030543238390237093,-0.0054977829568088055,-0.004276053514331579
1775033818487906600,17.401906494140626,-0.002443459117785096,-0.0054977829568088055,-0.0030543238390237093
1775033818539387400,17.453387451171874,-0.001221729558892548,-0.006108647678047419,-0.004276053514331579
1775033818590868000,17.504867919921875,-0.002443459117785096,-0.0054977829568088055,-0.004276053514331579
1775033818642348800,17.556348876953123,-0.002443459117785096,-0.006108647678047419,-0.003665188793092966
1775033818693829400,17.607829345703124,-0.002443459117785096,-0.006108647678047419,-0.003665188793092966
1775033818745310200,17.659310302734376,-0.001832594396546483,-0.0054977829568088055,-0.0030543238390237093
1775033818796790800,17.710790771484376,-0.002443459117785096,-0.0054977829568088055,-0.0030543238390237093
1775033818848271600,17.762271728515625,-0.002443459117785096,-0.0054977829568088055,-0.004886918235570192
1775033818899752200,17.813752197265625,-0.0030543238390237093,-0.006108647678047419,-0.004276053514331579
1775033818951233000,17.86523291015625,-0.002443459117785096,-0.006108647678047419,-0.0030543238390237093
1775033819002713600,17.916713623046874,-0.001832594396546483,-0.006108647678047419,-0.003665188793092966
1775033819054194400,17.9681943359375,-0.002443459117785096,-0.006108647678047419,-0.003665188793092966
1775033819105675000,18.019675048828127,-0.002443459117785096,-0.006719512399286032,-0.003665188793092966
1775033819157155800,18.07115576171875,-0.001832594396546483,-0.0054977829568088055,-0.003665188793092966
1775033819208636400,18.122636474609376,-0.002443459117785096,-0.006719512399286032,-0.003665188793092966
1775033819260117500,18.174117431640624,-0.002443459117785096,-0.004886918235570192,-0.003665188793092966
1775033819311597800,18.225597900390625,-0.002443459117785096,-0.006108647678047419,-0.003665188793092966
1775033819363078700,18.27707861328125,-0.001832594396546483,-0.0054977829568088055,-0.003665188793092966
1775033819414559500,18.3285595703125,-0.002443459117785096,-0.004886918235570192,-0.004276053514331579
1775033819466040000,18.3800400390625,-0.002443459117785096,-0.004886918235570192,-0.003665188793092966
1775033819517520600,18.431520751953126,-0.002443459117785096,-0.006108647678047419,-0.003665188793092966
1775033819569001500,18.48300146484375,-0.002443459117785096,-0.006108647678047419,-0.004276053514331579
1775033819620482000,18.53448193359375,-0.002443459117785096,-0.0054977829568088055,-0.003665188793092966
1775033819671963000,18.585962890625,-0.001832594396546483,-0.006108647678047419,-0.004276053514331579
1775033819723443500,18.637443359375,-0.002443459117785096,-0.006719512399286032,-0.003665188793092966
1775033819774924300,18.68892431640625,-0.0030543238390237093,-0.006719512399286032,-0.003665188793092966
1775033819826404900,18.74040478515625,-0.002443459117785096,-0.006719512399286032,-0.003665188793092966
1775033819877885700,18.7918857421875,-0.001832594396546483,-0.006719512399286032,-0.003665188793092966
1775033819929366300,18.8433662109375,-0.002443459117785096,-0.006108647678047419,-0.003665188793092966
1775033819980847000,18.89484716796875,-0.002443459117785096,-0.0054977829568088055,-0.003665188793092966
1775033820032327700,18.94632763671875,-0.002443459117785096,-0.0054977829568088055,-0.003665188793092966
1775033820083808500,18.99780859375,-0.002443459117785096,-0.006108647678047419,-0.003665188793092966
1775033820135289000,19.0492890625,-0.001832594396546483,-0.0054977829568088055,-0.004276053514331579
1775033820186770000,19.10077001953125,-0.002443459117785096,-0.006108647678047419,-0.003665188793092966
1775033820238250500,19.15225048828125,-0.002443459117785096,-0.0054977829568088055,-0.003665188793092966
1775033820289731300,19.2037314453125,-0.0030543238390237093,-0.0054977829568088055,-0.004276053514331579
1775033820341212000,19.2552119140625,-0.002443459117785096,-0.0054977829568088055,-0.0030543238390237093
1775033820392692500,19.3066923828125,-0.002443459117785096,-0.006108647678047419,-0.003665188793092966
1775033820444173300,19.35817333984375,-0.002443459117785096,-0.006719512399286032,-0.003665188793092966
1775033820495654000,19.40965380859375,-0.002443459117785096,-0.004886918235570192,-0.0030543238390237093
1775033820547134700,19.461134765625,-0.002443459117785096,-0.0054977829568088055,-0.004276053514331579
1775033820598615300,19.512615234375,-0.001832594396546483,-0.006108647678047419,-0.002443459117785096
1775033820650095900,19.564095947265624,-0.002443459117785096,-0.0054977829568088055,-0.004276053514331579
1775033820701576700,19.61557666015625,-0.001832594396546483,-0.0054977829568088055,-0.004276053514331579
1775033820753057500,19.6670576171875,-0.002443459117785096,-0.006719512399286032,-0.004276053514331579
1775033820804538000,19.7185380859375,-0.002443459117785096,-0.0054977829568088055,-0.004886918235570192
1775033820856018700,19.770018798828126,-0.0030543238390237093,-0.006108647678047419,-0.003665188793092966
1775033820907499500,19.82149951171875,-0.001832594396546483,-0.0054977829568088055,-0.003665188793092966
1775033820958980000,19.87297998046875,-0.002443459117785096,-0.0054977829568088055,-0.003665188793092966
1775033821053361400,19.967361328125,-0.002443459117785096,-0.006108647678047419,-0.0030543238390237093
1775033821104842000,20.018842041015624,-0.001832594396546483,-0.006108647678047419,-0.004276053514331579
1775033821156322800,20.07032275390625,-0.002443459117785096,-0.006719512399286032,-0.004276053514331579
1775033821207803400,20.121803466796877,-0.001832594396546483,-0.0054977829568088055,-0.003665188793092966
1775033821259284000,20.173283935546873,-0.002443459117785096,-0.0054977829568088055,-0.004886918235570192
1775033821310764800,20.224764892578126,-0.002443459117785096,-0.006719512399286032,-0.004276053514331579
1775033821362245400,20.276245361328126,-0.001832594396546483,-0.0054977829568088055,-0.004276053514331579
1775033821413726200,20.327726318359375,-0.002443459117785096,-0.006108647678047419,-0.0030543238390237093
1775033821465206800,20.379206787109375,-0.002443459117785096,-0.006108647678047419,-0.004276053514331579
1775033821516687600,20.4306875,-0.0030543238390237093,-0.006108647678047419,-0.003665188793092966
1775033821568168200,20.482168212890624,-0.001832594396546483,-0.006108647678047419,-0.003665188793092966
1775033821619648800,20.533648681640624,-0.002443459117785096,-0.004886918235570192,-0.0030543238390237093
1775033821671129600,20.585129638671877,-0.002443459117785096,-0.006108647678047419,-0.003665188793092966
1775033821722610200,20.636610107421873,-0.001832594396546483,-0.006108647678047419,-0.004276053514331579
1775033821774091000,20.688091064453126,-0.002443459117785096,-0.0054977829568088055,-0.004276053514331579
1775033821825571600,20.739571533203126,-0.001832594396546483,-0.0054977829568088055,-0.004276053514331579
1775033821877052200,20.79105224609375,-0.002443459117785096,-0.006108647678047419,-0.003665188793092966
1775033821928533000,20.842532958984375,-0.002443459117785096,-0.006108647678047419,-0.004276053514331579
1775033821980013600,20.894013671875,-0.002443459117785096,-0.004886918235570192,-0.003665188793092966
1775033822031494400,20.945494384765624,-0.002443459117785096,-0.004886918235570192,-0.004276053514331579
1775033822082975000,20.99697509765625,-0.002443459117785096,-0.004886918235570192,-0.004886918235570192
1775033822134455600,21.04845556640625,-0.0030543238390237093,-0.0054977829568088055,-0.003665188793092966
1775033822185936400,21.099936279296877,-0.002443459117785096,-0.0054977829568088055,-0.003665188793092966
1775033822237417000,21.1514169921875,-0.002443459117785096,-0.0054977829568088055,-0.003665188793092966
1775033822288897800,21.202897705078126,-0.002443459117785096,-0.006108647678047419,-0.003665188793092966
1775033822340378400,21.25437841796875,-0.002443459117785096,-0.007330377586185932,-0.004886918235570192
1775033822391859000,21.30585888671875,-0.002443459117785096,-0.006108647678047419,-0.004276053514331579
1775033822443339800,21.35733984375,-0.001832594396546483,-0.0054977829568088055,-0.003665188793092966
1775033822494820400,21.4088203125,-0.002443459117785096,-0.006108647678047419,-0.003665188793092966
1775033822546301200,21.46030126953125,-0.002443459117785096,-0.006108647678047419,-0.0030543238390237093
1775033822597781800,21.51178173828125,-0.002443459117785096,-0.004886918235570192,-0.003665188793092966
1775033822649262300,21.563262451171877,-0.002443459117785096,-0.0054977829568088055,-0.0030543238390237093
1775033822700743200,21.6147431640625,-0.0030543238390237093,-0.0054977829568088055,-0.004276053514331579
1775033822752223700,21.6662236328125,-0.002443459117785096,-0.006108647678047419,-0.004276053514331579
1775033822803704600,21.71770458984375,-0.002443459117785096,-0.006108647678047419,-0.003665188793092966
1775033822855185200,21.76918505859375,-0.002443459117785096,-0.006108647678047419,-0.004276053514331579
1775033822906665700,21.820665771484375,-0.002443459117785096,-0.0054977829568088055,-0.003665188793092966
1775033822958146600,21.872146484375,-0.002443459117785096,-0.0054977829568088055,-0.004276053514331579
1775033823009627100,21.923627197265624,-0.002443459117785096,-0.006108647678047419,-0.004886918235570192
1775033823061107700,21.975107666015624,-0.002443459117785096,-0.0054977829568088055,-0.003665188793092966
1775033823112588500,22.026588623046877,-0.002443459117785096,-0.006108647678047419,-0.004276053514331579
1775033823164069000,22.078069091796873,-0.002443459117785096,-0.007330377586185932,-0.003665188793092966
1775033823215549700,22.1295498046875,-0.002443459117785096,-0.006108647678047419,-0.003665188793092966
1775033823267030500,22.181030517578126,-0.002443459117785096,-0.0054977829568088055,-0.0030543238390237093
1775033823318511000,22.232510986328126,-0.002443459117785096,-0.0054977829568088055,-0.004276053514331579
1775033823369992000,22.283991943359375,-0.001832594396546483,-0.006108647678047419,-0.0030543238390237093
1775033823421472500,22.335472412109375,-0.002443459117785096,-0.0054977829568088055,-0.0030543238390237093
1775033823472953000,22.386953125,-0.001221729558892548,-0.006719512399286032,-0.003665188793092966
1775033823524434000,22.438433837890624,-0.001832594396546483,-0.0054977829568088055,-0.004886918235570192
1775033823575914500,22.48991455078125,-0.002443459117785096,-0.006719512399286032,-0.003665188793092966
1775033823627395000,22.54139501953125,-0.001832594396546483,-0.0054977829568088055,-0.004276053514331579
1775033823678876000,22.5928759765625,-0.002443459117785096,-0.004886918235570192,-0.004276053514331579
1775033823730356500,22.6443564453125,-0.002443459117785096,-0.007330377586185932,-0.004886918235570192
1775033823781837300,22.69583740234375,-0.0030543238390237093,-0.006108647678047419,-0.003665188793092966
1775033823833318000,22.74731787109375,-0.001832594396546483,-0.006108647678047419,-0.003665188793092966
1775033823884798500,22.798798583984375,-0.001832594396546483,-0.0054977829568088055,-0.003665188793092966
1775033823936279300,22.850279296875,-0.002443459117785096,-0.0054977829568088055,-0.003665188793092966
1775033823987759900,22.901759765625,-0.0030543238390237093,-0.006108647678047419,-0.003665188793092966
1775033824039240400,22.953240478515625,-0.002443459117785096,-0.0054977829568088055,-0.0030543238390237093
1775033824090721300,23.00472119140625,-0.002443459117785096,-0.006108647678047419,-0.003665188793092966
1775033824142201900,23.056201904296874,-0.002443459117785096,-0.006108647678047419,-0.003665188793092966
1775033824193682400,23.107682373046874,-0.002443459117785096,-0.006108647678047419,-0.004886918235570192
1775033824245163300,23.159163330078126,-0.002443459117785096,-0.006108647678047419,-0.003665188793092966
1775033824296643800,23.210643798828126,-0.0030543238390237093,-0.006108647678047419,-0.003665188793092966
1775033824348124400,23.26212451171875,-0.001832594396546483,-0.0054977829568088055,-0.003665188793092966
1775033824399605200,23.313605224609375,-0.002443459117785096,-0.0054977829568088055,-0.003665188793092966
1775033824451085800,23.3650859375,-0.002443459117785096,-0.006108647678047419,-0.004276053514331579
1775033824502566700,23.416566650390624,-0.0030543238390237093,-0.006719512399286032,-0.004276053514331579
1775033824554047200,23.468047119140625,-0.002443459117785096,-0.0054977829568088055,-0.003665188793092966
1775033824605527800,23.51952783203125,-0.002443459117785096,-0.006108647678047419,-0.0030543238390237093
1775033824657008600,23.571008544921874,-0.002443459117785096,-0.004886918235570192,-0.003665188793092966
1775033824708489200,23.6224892578125,-0.002443459117785096,-0.006108647678047419,-0.0030543238390237093
1775033824759969800,23.6739697265625,-0.002443459117785096,-0.0054977829568088055,-0.004276053514331579
1775033824811450400,23.725450439453127,-0.002443459117785096,-0.006108647678047419,-0.004276053514331579
1775033824862931200,23.77693115234375,-0.002443459117785096,-0.004886918235570192,-0.002443459117785096
1775033824914411800,23.828411865234376,-0.002443459117785096,-0.004886918235570192,-0.0030543238390237093
1775033824965892400,23.879892333984376,-0.002443459117785096,-0.007330377586185932,-0.004276053514331579
1775033825017373200,23.931373291015625,-0.002443459117785096,-0.006108647678047419,-0.004276053514331579
1775033825068853800,23.982853759765625,-0.002443459117785096,-0.0054977829568088055,-0.004276053514331579
1775033825120334300,24.034334228515625,-0.002443459117785096,-0.007330377586185932,-0.003665188793092966
1775033825171815200,24.085815185546874,-0.001832594396546483,-0.0054977829568088055,-0.004276053514331579
1775033825223295700,24.137295654296874,-0.002443459117785096,-0.0054977829568088055,-0.003665188793092966
1775033825274776300,24.1887763671875,-0.002443459117785096,-0.006108647678047419,-0.0030543238390237093
1775033825326257200,24.240257080078123,-0.002443459117785096,-0.004886918235570192,-0.003665188793092966
1775033825377737700,24.29173779296875,-0.002443459117785096,-0.006719512399286032,-0.004886918235570192
1775033825429218300,24.34321826171875,-0.002443459117785096,-0.004886918235570192,-0.0030543238390237093
1775033825480699100,24.39469921875,-0.002443459117785096,-0.004886918235570192,-0.003665188793092966
1775033825532179700,24.4461796875,-0.0030543238390237093,-0.006108647678047419,-0.003665188793092966
1775033825583660300,24.497660400390625,-0.0030543238390237093,-0.006108647678047419,-0.003665188793092966
1775033825635141000,24.54914111328125,-0.0030543238390237093,-0.004886918235570192,-0.003665188793092966
1775033825686621700,24.60062158203125,-0.002443459117785096,-0.0054977829568088055,-0.004276053514331579
1775033825738102300,24.652102294921875,-0.001832594396546483,-0.006108647678047419,-0.003665188793092966
1775033825789582800,24.703582763671875,-0.002443459117785096,-0.006108647678047419,-0.004276053514331579
1775033825841063700,24.755063720703124,-0.002443459117785096,-0.0054977829568088055,-0.003665188793092966
1775033825892544300,24.806544189453124,-0.002443459117785096,-0.0054977829568088055,-0.003665188793092966
1775033825944024800,24.85802490234375,-0.001221729558892548,-0.0054977829568088055,-0.004276053514331579
1775033825995505700,24.909505615234377,-0.002443459117785096,-0.0054977829568088055,-0.004276053514331579
1775033826046986200,24.960986328125,-0.002443459117785096,-0.006108647678047419,-0.004276053514331579
1775033826098466800,25.012466796875,-0.002443459117785096,-0.0054977829568088055,-0.004276053514331579
1775033826149947400,25.063947509765626,-0.002443459117785096,-0.006108647678047419,-0.003665188793092966
1775033826201428200,25.11542822265625,-0.002443459117785096,-0.006108647678047419,-0.003665188793092966
1775033826252908800,25.16690869140625,-0.0030543238390237093,-0.004886918235570192,-0.004276053514331579
1775033826304389400,25.218389404296875,-0.002443459117785096,-0.0054977829568088055,-0.0030543238390237093
1775033826355870000,25.269869873046876,-0.001221729558892548,-0.006719512399286032,-0.003665188793092966
1775033826407350800,25.321350830078124,-0.002443459117785096,-0.0054977829568088055,-0.004276053514331579
1775033826458831400,25.372831298828125,-0.002443459117785096,-0.006108647678047419,-0.004276053514331579
1775033826510312000,25.42431201171875,-0.001832594396546483,-0.0054977829568088055,-0.003665188793092966
1775033826561792500,25.47579248046875,-0.001832594396546483,-0.0054977829568088055,-0.003665188793092966
1775033826613273300,25.5272734375,-0.001832594396546483,-0.006108647678047419,-0.004276053514331579
1775033826664754000,25.57875390625,-0.0030543238390237093,-0.0054977829568088055,-0.003665188793092966
1775033826716234500,25.630234375,-0.002443459117785096,-0.0054977829568088055,-0.002443459117785096
1775033826767715000,25.681715087890623,-0.002443459117785096,-0.0054977829568088055,-0.004276053514331579
1775033826819196000,25.73319580078125,-0.002443459117785096,-0.006108647678047419,-0.003665188793092966
1775033826870676500,25.784676513671876,-0.002443459117785096,-0.0054977829568088055,-0.004276053514331579
1775033826922157000,25.836156982421876,-0.002443459117785096,-0.006108647678047419,-0.004276053514331579
1775033826973637600,25.8876376953125,-0.002443459117785096,-0.0054977829568088055,-0.003665188793092966
1775033827025118500,25.939118408203125,-0.002443459117785096,-0.0054977829568088055,-0.003665188793092966
1775033827076599000,25.99059912109375,-0.002443459117785096,-0.006108647678047419,-0.003665188793092966
1775033827128079600,26.04207958984375,-0.001832594396546483,-0.006108647678047419,-0.0030543238390237093
1775033827179560200,26.093560302734375,-0.001832594396546483,-0.006108647678047419,-0.003665188793092966
1775033827231041000,26.145041015625,-0.002443459117785096,-0.004886918235570192,-0.002443459117785096
1775033827282521600,26.196521484375,-0.002443459117785096,-0.006719512399286032,-0.003665188793092966
1775033827334002200,26.248002197265624,-0.002443459117785096,-0.0054977829568088055,-0.0030543238390237093
1775033827385482800,26.299482666015624,-0.0030543238390237093,-0.0054977829568088055,-0.0030543238390237093
1775033827436963600,26.350963623046876,-0.002443459117785096,-0.006719512399286032,-0.004276053514331579
1775033827488444200,26.402444091796873,-0.0030543238390237093,-0.007330377586185932,-0.003665188793092966
1775033827539924700,26.4539248046875,-0.001832594396546483,-0.0054977829568088055,-0.004276053514331579
1775033827591405300,26.5054052734375,-0.002443459117785096,-0.0054977829568088055,-0.004276053514331579
1775033827642886000,26.556885986328126,-0.002443459117785096,-0.004276053514331579,-0.003665188793092966
1775033827694366700,26.60836669921875,-0.0030543238390237093,-0.007330377586185932,-0.004276053514331579
1775033827745847300,26.659847412109375,-0.002443459117785096,-0.0054977829568088055,-0.0030543238390237093
1775033827797328000,26.711327880859375,-0.002443459117785096,-0.006719512399286032,-0.004276053514331579
1775033827848808400,26.762808349609376,-0.0030543238390237093,-0.0054977829568088055,-0.004886918235570192
1775033827900289300,26.814289306640624,-0.002443459117785096,-0.006108647678047419,-0.002443459117785096
1775033827951769900,26.865769775390625,-0.002443459117785096,-0.0054977829568088055,-0.004276053514331579
1775033828003250400,26.91725048828125,-0.001832594396546483,-0.006108647678047419,-0.0030543238390237093
1775033828054731000,26.96873095703125,-0.002443459117785096,-0.004886918235570192,-0.0030543238390237093
1775033828106211800,27.0202119140625,-0.002443459117785096,-0.006108647678047419,-0.002443459117785096
1775033828157692400,27.0716923828125,-0.001832594396546483,-0.0054977829568088055,-0.0030543238390237093
1775033828209173000,27.123173095703127,-0.002443459117785096,-0.0054977829568088055,-0.0030543238390237093
1775033828260653600,27.174653564453124,-0.001832594396546483,-0.006719512399286032,-0.004276053514331579
1775033828312134400,27.226134521484376,-0.0030543238390237093,-0.004276053514331579,-0.0030543238390237093
1775033828363615000,27.277614990234376,-0.0030543238390237093,-0.006108647678047419,-0.004276053514331579
1775033828415095600,27.329095458984376,-0.002443459117785096,-0.0054977829568088055,-0.004276053514331579
1775033828466576100,27.380576171875,-0.002443459117785096,-0.006108647678047419,-0.003665188793092966
1775033828518056700,27.432056640625,-0.002443459117785096,-0.0054977829568088055,-0.003665188793092966
1775033828569537500,27.48353759765625,-0.002443459117785096,-0.004276053514331579,-0.004276053514331579
1775033828621018000,27.53501806640625,-0.002443459117785096,-0.006108647678047419,-0.003665188793092966
1775033828672498700,27.586498779296875,-0.002443459117785096,-0.006719512399286032,-0.0030543238390237093
1775033828723979300,27.637979248046875,-0.002443459117785096,-0.006719512399286032,-0.004276053514331579
1775033828775460000,27.689460205078124,-0.002443459117785096,-0.0054977829568088055,-0.0030543238390237093
1775033828826940700,27.740940673828124,-0.002443459117785096,-0.006719512399286032,-0.004886918235570192
1775033828878421200,27.792421142578124,-0.0030543238390237093,-0.006108647678047419,-0.0030543238390237093
1775033828929901800,27.84390185546875,-0.002443459117785096,-0.007330377586185932,-0.004276053514331579
1775033828981382400,27.89538232421875,-0.0030543238390237093,-0.0054977829568088055,-0.004276053514331579
1775033829032863200,27.94686328125,-0.002443459117785096,-0.006108647678047419,-0.004276053514331579
1775033829084343800,27.99834375,-0.002443459117785096,-0.0054977829568088055,-0.003665188793092966
1775033829135824400,28.049824462890626,-0.002443459117785096,-0.007330377586185932,-0.003665188793092966
1775033829187305000,28.101304931640627,-0.002443459117785096,-0.006108647678047419,-0.0030543238390237093
1775033829238785500,28.15278564453125,-0.002443459117785096,-0.006108647678047419,-0.003665188793092966
1775033829290266400,28.204266357421876,-0.0030543238390237093,-0.006108647678047419,-0.003665188793092966
1775033829341747000,28.255746826171876,-0.002443459117785096,-0.004886918235570192,-0.0030543238390237093
1775033829393227500,28.3072275390625,-0.001832594396546483,-0.0054977829568088055,-0.003665188793092966
1775033829444708000,28.3587080078125,-0.002443459117785096,-0.006108647678047419,-0.003665188793092966
1775033829496188700,28.410188720703125,-0.003665188793092966,-0.007330377586185932,-0.003665188793092966
1775033829547669500,28.46166943359375,-0.0030543238390237093,-0.007330377586185932,-0.003665188793092966
1775033829599150000,28.513150146484374,-0.002443459117785096,-0.006719512399286032,-0.004886918235570192
1775033829650630700,28.564630615234375,-0.002443459117785096,-0.0054977829568088055,-0.0030543238390237093
1775033829702111200,28.616111328125,-0.002443459117785096,-0.004886918235570192,-0.003665188793092966
1775033829753591800,28.667591796875,-0.0030543238390237093,-0.004276053514331579,-0.004276053514331579
1775033829805072600,28.71907275390625,-0.002443459117785096,-0.003665188793092966,-0.003665188793092966
1775033829856553200,28.77055322265625,-0.002443459117785096,-0.003665188793092966,-0.004886918235570192
1775033829908033800,28.82203369140625,-0.0030543238390237093,-0.004886918235570192,-0.003665188793092966
1775033829959514400,28.873514404296873,-0.002443459117785096,-0.004886918235570192,-0.0030543238390237093
1775033830010995200,28.9249951171875,-0.002443459117785096,-0.006719512399286032,-0.004276053514331579
1775033830062475800,28.976475830078126,-0.001221729558892548,-0.006108647678047419,-0.004886918235570192
1775033830113956400,29.027956298828126,-0.001832594396546483,-0.006108647678047419,-0.003665188793092966
1775033830165437000,29.07943701171875,-0.002443459117785096,-0.006108647678047419,-0.004276053514331579
1775033830216917500,29.13091748046875,-0.002443459117785096,-0.006108647678047419,-0.003665188793092966
1775033830268398000,29.182398193359376,-0.0030543238390237093,-0.0054977829568088055,-0.003665188793092966
1775033830319879000,29.23387890625,-0.002443459117785096,-0.006719512399286032,-0.0030543238390237093
1775033830371359500,29.285359375,-0.002443459117785096,-0.004886918235570192,-0.0030543238390237093
1775033830422840000,29.336840087890625,-0.002443459117785096,-0.0054977829568088055,-0.004276053514331579
1775033830474320600,29.388320556640625,-0.002443459117785096,-0.006108647678047419,-0.003665188793092966
1775033830525801200,29.43980126953125,-0.001832594396546483,-0.006719512399286032,-0.004276053514331579
1775033830577281800,29.49128173828125,-0.0030543238390237093,-0.006719512399286032,-0.0030543238390237093
1775033830628762600,29.5427626953125,-0.002443459117785096,-0.004886918235570192,-0.003665188793092966
1775033830680243200,29.5942431640625,-0.002443459117785096,-0.004886918235570192,-0.004276053514331579
1775033830731723800,29.645723876953124,-0.002443459117785096,-0.0054977829568088055,-0.0030543238390237093
1775033830783204400,29.697204345703124,-0.002443459117785096,-0.004276053514331579,-0.0030543238390237093
1775033830834685000,29.748684814453124,-0.002443459117785096,-0.003665188793092966,-0.003665188793092966
1775033830886165800,29.800165771484377,-0.002443459117785096,-0.004276053514331579,-0.004276053514331579
1775033830937646300,29.851646240234373,-0.002443459117785096,-0.006108647678047419,-0.004276053514331579
1775033830989127000,29.903126953125,-0.0030543238390237093,-0.006108647678047419,-0.004276053514331579
1775033831040607500,29.954607421875,-0.002443459117785096,-0.004886918235570192,-0.003665188793092966
1775033831092088000,30.006088134765626,-0.002443459117785096,-0.006719512399286032,-0.003665188793092966
1775033831143569000,30.05756884765625,-0.002443459117785096,-0.006719512399286032,-0.004276053514331579
1775033831195049500,30.109049560546875,-0.002443459117785096,-0.0054977829568088055,-0.003665188793092966
1775033831246530000,30.160530029296876,-0.002443459117785096,-0.0054977829568088055,-0.003665188793092966
1775033831298010600,30.2120107421875,-0.0030543238390237093,-0.007330377586185932,-0.003665188793092966
1775033831349491200,30.2634912109375,-0.002443459117785096,-0.006108647678047419,-0.0030543238390237093
1775033831400971800,30.3149716796875,-0.002443459117785096,-0.004886918235570192,-0.0030543238390237093
1775033831452452400,30.366452392578125,-0.002443459117785096,-0.0054977829568088055,-0.003665188793092966
1775033831503933200,30.41793310546875,-0.001832594396546483,-0.0054977829568088055,-0.003665188793092966
1775033831555413800,30.469413818359374,-0.002443459117785096,-0.0054977829568088055,-0.003665188793092966
1775033831606894300,30.520894287109375,-0.002443459117785096,-0.0054977829568088055,-0.003665188793092966
1775033831658375000,30.572375,-0.002443459117785096,-0.006719512399286032,-0.003665188793092966
1775033831709855500,30.62385546875,-0.002443459117785096,-0.004886918235570192,-0.0030543238390237093
1775033831761336000,30.675336181640624,-0.002443459117785096,-0.0054977829568088055,-0.003665188793092966
1775033831812817000,30.72681689453125,-0.002443459117785096,-0.0054977829568088055,-0.003665188793092966
1775033831864297500,30.77829736328125,-0.002443459117785096,-0.0054977829568088055,-0.003665188793092966
1775033831915778000,30.829778076171873,-0.002443459117785096,-0.006108647678047419,-0.004276053514331579
1775033831967258600,30.881258544921874,-0.0030543238390237093,-0.0054977829568088055,-0.0054977829568088055
1775033832018739200,30.9327392578125,-0.0030543238390237093,-0.006108647678047419,-0.003665188793092966
1775033832070219800,30.9842197265625,-0.002443459117785096,-0.0054977829568088055,-0.0030543238390237093
1775033832121700400,31.035700439453127,-0.001832594396546483,-0.0054977829568088055,-0.0030543238390237093
1775033832173181200,31.08718115234375,-0.0030543238390237093,-0.006719512399286032,-0.0030543238390237093
1775033832224661800,31.138661865234376,-0.001832594396546483,-0.0054977829568088055,-0.004276053514331579
1775033832276142300,31.190142333984376,-0.001832594396546483,-0.0054977829568088055,-0.004276053514331579
1775033832327623000,31.241622802734376,-0.002443459117785096,-0.006719512399286032,-0.003665188793092966
1775033832379103500,31.293103515625,-0.002443459117785096,-0.006108647678047419,-0.003665188793092966
1775033832430584000,31.344583984375,-0.002443459117785096,-0.006108647678047419,-0.0030543238390237093
1775033832482064600,31.396064697265626,-0.001832594396546483,-0.006108647678047419,-0.003665188793092966
1775033832533545200,31.447545166015626,-0.002443459117785096,-0.006108647678047419,-0.003665188793092966
1775033832585026000,31.499026123046875,-0.002443459117785096,-0.006108647678047419,-0.003665188793092966
1775033832636506600,31.550506591796875,-0.002443459117785096,-0.0054977829568088055,-0.0030543238390237093
1775033832687987200,31.6019873046875,-0.001221729558892548,-0.006108647678047419,-0.002443459117785096
1775033832739467800,31.6534677734375,-0.002443459117785096,-0.006108647678047419,-0.003665188793092966
1775033832833848800,31.747848876953125,-0.002443459117785096,-0.006108647678047419,-0.004886918235570192
1775033832885329400,31.799329345703125,-0.001832594396546483,-0.006719512399286032,-0.0030543238390237093
1775033832936810200,31.850810302734374,-0.002443459117785096,-0.004886918235570192,-0.0030543238390237093
1775033832988290800,31.902290771484374,-0.001221729558892548,-0.006108647678047419,-0.003665188793092966
1775033833039771400,31.953771484375,-0.002443459117785096,-0.006719512399286032,-0.0030543238390237093
1775033833091252000,32.005251953125,-0.0030543238390237093,-0.004886918235570192,-0.003665188793092966
1775033833142732500,32.05673266601563,-0.002443459117785096,-0.006108647678047419,-0.0030543238390237093
1775033833194213000,32.10821313476563,-0.001832594396546483,-0.004886918235570192,-0.003665188793092966
1775033833245693700,32.15969360351563,-0.0030543238390237093,-0.006108647678047419,-0.003665188793092966
1775033833297174300,32.21117431640625,-0.0030543238390237093,-0.0054977829568088055,-0.003665188793092966
1775033833348654800,32.26265478515625,-0.002443459117785096,-0.004886918235570192,-0.004276053514331579
1775033833400135400,32.31413549804687,-0.001832594396546483,-0.0054977829568088055,-0.003665188793092966
1775033833451616300,32.3656162109375,-0.0030543238390237093,-0.0054977829568088055,-0.004276053514331579
1775033833503096800,32.417096923828126,-0.002443459117785096,-0.006719512399286032,-0.003665188793092966
1775033833554577400,32.468577392578126,-0.002443459117785096,-0.0054977829568088055,-0.004276053514331579
1775033833606058000,32.52005810546875,-0.0030543238390237093,-0.006108647678047419,-0.003665188793092966
1775033833657538600,32.57153857421875,-0.002443459117785096,-0.007330377586185932,-0.003665188793092966
1775033833709019100,32.62301904296875,-0.001221729558892548,-0.006719512399286032,-0.003665188793092966
1775033833760499700,32.67449975585937,-0.002443459117785096,-0.004886918235570192,-0.003665188793092966
1775033833811980300,32.72598022460937,-0.002443459117785096,-0.006719512399286032,-0.004276053514331579
1775033833863461000,32.777461181640625,-0.001221729558892548,-0.0054977829568088055,-0.004276053514331579
1775033833914941700,32.828941650390625,-0.0030543238390237093,-0.004886918235570192,-0.0030543238390237093
1775033833966422300,32.88042236328125,-0.0030543238390237093,-0.006108647678047419,-0.004276053514331579
1775033834017902800,32.93190283203125,-0.002443459117785096,-0.0054977829568088055,-0.003665188793092966
1775033834069383400,32.98338354492188,-0.001832594396546483,-0.006108647678047419,-0.0030543238390237093
1775033834120864000,33.03486401367188,-0.002443459117785096,-0.006108647678047419,-0.004276053514331579
1775033834172344600,33.08634448242187,-0.002443459117785096,-0.006719512399286032,-0.003665188793092966
1775033834223825200,33.1378251953125,-0.002443459117785096,-0.007330377586185932,-0.002443459117785096
1775033834275305700,33.1893056640625,-0.002443459117785096,-0.0054977829568088055,-0.0030543238390237093
1775033834326786300,33.240786376953125,-0.002443459117785096,-0.0054977829568088055,-0.003665188793092966
1775033834378267000,33.292266845703125,-0.0030543238390237093,-0.004886918235570192,-0.004276053514331579
1775033834429747500,33.34374755859375,-0.0030543238390237093,-0.006108647678047419,-0.003665188793092966
1775033834481228300,33.39522827148438,-0.001832594396546483,-0.0054977829568088055,-0.003665188793092966
1775033834532708900,33.446708984375,-0.002443459117785096,-0.0054977829568088055,-0.004276053514331579
1775033834584189400,33.498189453125,-0.002443459117785096,-0.0054977829568088055,-0.004276053514331579
1775033834635670000,33.549669921875,-0.002443459117785096,-0.0054977829568088055,-0.004276053514331579
1775033834687150600,33.601150634765624,-0.002443459117785096,-0.004886918235570192,-0.003665188793092966
1775033834738631200,33.652631103515624,-0.0030543238390237093,-0.006108647678047419,-0.003665188793092966
1775033834790111700,33.70411181640625,-0.002443459117785096,-0.006108647678047419,-0.003665188793092966
1775033834841592300,33.75559228515625,-0.002443459117785096,-0.006108647678047419,-0.004276053514331579
1775033834893073000,33.80707299804688,-0.001832594396546483,-0.006108647678047419,-0.004276053514331579
1775033834944553700,33.8585537109375,-0.002443459117785096,-0.006108647678047419,-0.003665188793092966
1775033834996034300,33.91003442382812,-0.002443459117785096,-0.006108647678047419,-0.004276053514331579
1775033835047515000,33.96151489257812,-0.002443459117785096,-0.0054977829568088055,-0.004276053514331579
1775033835098995500,34.01299536132812,-0.002443459117785096,-0.006108647678047419,-0.004886918235570192
1775033835193376500,34.10737646484375,-0.001832594396546483,-0.006108647678047419,-0.003665188793092966
1775033835244857000,34.158857177734376,-0.002443459117785096,-0.006108647678047419,-0.003665188793092966
1775033835296337700,34.210337646484376,-0.002443459117785096,-0.0054977829568088055,-0.003665188793092966
1775033835347818200,34.261818359375,-0.002443459117785096,-0.006108647678047419,-0.002443459117785096
1775033835399298800,34.313298828125,-0.002443459117785096,-0.0054977829568088055,-0.0030543238390237093
1775033835450779400,34.364779296875,-0.002443459117785096,-0.0054977829568088055,-0.003665188793092966
1775033835502260000,34.41626000976562,-0.002443459117785096,-0.0054977829568088055,-0.004886918235570192
1775033835553740800,34.46774072265625,-0.0030543238390237093,-0.0054977829568088055,-0.004276053514331579
1775033835605221400,34.519221435546875,-0.002443459117785096,-0.0054977829568088055,-0.004886918235570192
1775033835656702000,34.570701904296875,-0.001832594396546483,-0.006108647678047419,-0.004886918235570192
1775033835708182500,34.6221826171875,-0.002443459117785096,-0.0054977829568088055,-0.004276053514331579
1775033835759663000,34.6736630859375,-0.001832594396546483,-0.006719512399286032,-0.0030543238390237093
1775033835811143700,34.72514379882813,-0.002443459117785096,-0.006719512399286032,-0.0030543238390237093
1775033835862624300,34.77662426757813,-0.0030543238390237093,-0.0054977829568088055,-0.004886918235570192
1775033835914104800,34.82810473632812,-0.002443459117785096,-0.006108647678047419,-0.004886918235570192
1775033835965585400,34.87958544921875,-0.002443459117785096,-0.0054977829568088055,-0.003665188793092966
1775033836017066000,34.93106591796875,-0.002443459117785096,-0.004886918235570192,-0.004276053514331579
1775033836068546600,34.982546630859375,-0.002443459117785096,-0.006108647678047419,-0.0030543238390237093
1775033836120027100,35.034027099609375,-0.0030543238390237093,-0.007330377586185932,-0.004276053514331579
1775033836171507700,35.0855078125,-0.002443459117785096,-0.004886918235570192,-0.004886918235570192
1775033836222988300,35.13698828125,-0.002443459117785096,-0.006108647678047419,-0.003665188793092966
1775033836274469000,35.18846923828125,-0.002443459117785096,-0.006108647678047419,-0.004276053514331579
1775033836325949700,35.23994970703125,-0.001832594396546483,-0.0054977829568088055,-0.004276053514331579
1775033836377430300,35.29143017578125,-0.002443459117785096,-0.006108647678047419,-0.0030543238390237093
1775033836428910800,35.342910888671874,-0.002443459117785096,-0.006108647678047419,-0.004276053514331579
1775033836480391400,35.394391357421874,-0.001832594396546483,-0.006108647678047419,-0.003665188793092966
1775033836531872000,35.4458720703125,-0.002443459117785096,-0.0054977829568088055,-0.003665188793092966
1775033836583352600,35.4973525390625,-0.0030543238390237093,-0.006108647678047419,-0.004886918235570192
1775033836634833200,35.54883325195313,-0.001832594396546483,-0.006108647678047419,-0.0030543238390237093
1775033836686313700,35.60031372070313,-0.002443459117785096,-0.006108647678047419,-0.003665188793092966
1775033836737794300,35.65179418945313,-0.001832594396546483,-0.006108647678047419,-0.004276053514331579
1775033836789275000,35.70327490234375,-0.001832594396546483,-0.0054977829568088055,-0.003665188793092966
1775033836840755500,35.75475537109375,-0.002443459117785096,-0.004886918235570192,-0.004276053514331579
1775033836892236000,35.80623608398437,-0.0030543238390237093,-0.006108647678047419,-0.003665188793092966
1775033836943716900,35.857716796875,-0.001832594396546483,-0.006108647678047419,-0.004276053514331579
1775033836995197400,35.909197509765626,-0.002443459117785096,-0.0054977829568088055,-0.004276053514331579
1775033837046678000,35.960677978515626,-0.001832594396546483,-0.006108647678047419,-0.004276053514331579
1775033837098158600,36.01215869140625,-0.002443459117785096,-0.004886918235570192,-0.004276053514331579
1775033837149639200,36.06363916015625,-0.003665188793092966,-0.006108647678047419,-0.004276053514331579
1775033837201119700,36.11511962890625,-0.002443459117785096,-0.0054977829568088055,-0.0030543238390237093
1775033837252600300,36.16660034179687,-0.001221729558892548,-0.006108647678047419,-0.003665188793092966
1775033837304081000,36.21808081054687,-0.002443459117785096,-0.006108647678047419,-0.003665188793092966
1775033837355561500,36.2695615234375,-0.0030543238390237093,-0.006719512399286032,-0.003665188793092966
1775033837407042000,36.3210419921875,-0.001832594396546483,-0.006719512399286032,-0.004276053514331579
1775033837458522600,36.372522705078126,-0.002443459117785096,-0.0054977829568088055,-0.003665188793092966
1775033837510003200,36.424003173828126,-0.002443459117785096,-0.0054977829568088055,-0.003665188793092966
1775033837561483800,36.47548388671875,-0.002443459117785096,-0.006108647678047419,-0.004276053514331579
1775033837612964400,36.52696435546875,-0.002443459117785096,-0.006108647678047419,-0.004276053514331579
1775033837664445000,36.57844482421875,-0.002443459117785096,-0.006719512399286032,-0.004886918235570192
1775033837715925500,36.62992553710937,-0.002443459117785096,-0.0054977829568088055,-0.003665188793092966
1775033837767406000,36.68140600585937,-0.002443459117785096,-0.006108647678047419,-0.003665188793092966
1775033837818886700,36.73288671875,-0.002443459117785096,-0.0054977829568088055,-0.003665188793092966
1775033837870367500,36.784367431640625,-0.002443459117785096,-0.004886918235570192,-0.003665188793092966
1775033837921848000,36.83584814453125,-0.001832594396546483,-0.0054977829568088055,-0.004276053514331579
1775033837973328600,36.88732861328125,-0.0030543238390237093,-0.0054977829568088055,-0.003665188793092966
1775033838024809000,36.93880908203125,-0.002443459117785096,-0.0054977829568088055,-0.003665188793092966
1775033838076289500,36.99028955078125,-0.002443459117785096,-0.006108647678047419,-0.0030543238390237093
1775033838127770400,37.04177026367187,-0.002443459117785096,-0.006108647678047419,-0.0030543238390237093
1775033838179251000,37.0932509765625,-0.002443459117785096,-0.006108647678047419,-0.0030543238390237093
1775033838230731500,37.1447314453125,-0.002443459117785096,-0.0054977829568088055,-0.0030543238390237093
1775033838282212000,37.196212158203124,-0.001832594396546483,-0.004886918235570192,-0.003665188793092966
1775033838333692700,37.247692626953125,-0.002443459117785096,-0.006719512399286032,-0.0030543238390237093
1775033838385173200,37.29917333984375,-0.002443459117785096,-0.006719512399286032,-0.0030543238390237093
1775033838436653800,37.35065380859375,-0.002443459117785096,-0.0054977829568088055,-0.0030543238390237093
1775033838488134400,37.40213452148438,-0.001832594396546483,-0.006108647678047419,-0.004276053514331579
1775033838539615000,37.45361499023438,-0.002443459117785096,-0.007330377586185932,-0.004276053514331579
1775033838591095600,37.50509545898438,-0.002443459117785096,-0.006108647678047419,-0.003665188793092966
1775033838642576100,37.556576171875,-0.002443459117785096,-0.004886918235570192,-0.0030543238390237093
1775033838694056700,37.608056640625,-0.002443459117785096,-0.004886918235570192,-0.004276053514331579
1775033838745537300,37.659537353515624,-0.002443459117785096,-0.004886918235570192,-0.003665188793092966
1775033838797017900,37.711017822265624,-0.002443459117785096,-0.006719512399286032,-0.004276053514331579
1775033838848498400,37.76249853515625,-0.0030543238390237093,-0.006108647678047419,-0.004276053514331579
1775033838899979000,37.81397900390625,-0.002443459117785096,-0.006108647678047419,-0.002443459117785096
1775033838951459600,37.86545947265625,-0.001832594396546483,-0.006108647678047419,-0.003665188793092966
1775033839002940200,37.91694018554688,-0.002443459117785096,-0.006719512399286032,-0.004276053514331579
1775033839054420700,37.96842065429688,-0.003665188793092966,-0.0054977829568088055,-0.003665188793092966
1775033839105901300,38.0199013671875,-0.002443459117785096,-0.004886918235570192,-0.004886918235570192
1775033839157382000,38.0713818359375,-0.001832594396546483,-0.006108647678047419,-0.0030543238390237093
1775033839208862500,38.122862548828124,-0.002443459117785096,-0.0054977829568088055,-0.0030543238390237093
1775033839260343000,38.174343017578124,-0.003665188793092966,-0.0054977829568088055,-0.003665188793092966
1775033839311823600,38.22582373046875,-0.002443459117785096,-0.0054977829568088055,-0.003665188793092966
1775033839363304200,38.27730419921875,-0.002443459117785096,-0.0054977829568088055,-0.003665188793092966
1775033839414784800,38.32878466796875,-0.002443459117785096,-0.0054977829568088055,-0.004276053514331579
1775033839466265300,38.38026538085938,-0.001832594396546483,-0.006719512399286032,-0.003665188793092966
1775033839517746000,38.43174584960938,-0.002443459117785096,-0.006108647678047419,-0.0030543238390237093
1775033839569226500,38.4832265625,-0.002443459117785096,-0.006108647678047419,-0.003665188793092966
1775033839620707000,38.53470703125,-0.001832594396546483,-0.006108647678047419,-0.003665188793092966
1775033839672187600,38.586187744140624,-0.002443459117785096,-0.006108647678047419,-0.004276053514331579
1775033839723668200,38.637668212890624,-0.002443459117785096,-0.0054977829568088055,-0.003665188793092966
1775033839775148800,38.689148681640624,-0.002443459117785096,-0.006108647678047419,-0.003665188793092966
1775033839826629400,38.74062939453125,-0.002443459117785096,-0.0054977829568088055,-0.003665188793092966
1775033839878110000,38.79210986328125,-0.002443459117785096,-0.0054977829568088055,-0.003665188793092966
1775033839929590500,38.84359057617188,-0.002443459117785096,-0.006108647678047419,-0.004276053514331579
1775033839981071000,38.89507104492188,-0.002443459117785096,-0.006108647678047419,-0.0030543238390237093
1775033840032551700,38.9465517578125,-0.002443459117785096,-0.0054977829568088055,-0.0030543238390237093
1775033840084032300,38.9980322265625,-0.002443459117785096,-0.0054977829568088055,-0.004886918235570192
1775033840135512800,39.04951293945312,-0.002443459117785096,-0.006719512399286032,-0.003665188793092966
1775033840186993400,39.100993408203124,-0.001832594396546483,-0.0054977829568088055,-0.003665188793092966
1775033840238474000,39.152473876953124,-0.002443459117785096,-0.0054977829568088055,-0.0030543238390237093
1775033840289954600,39.20395458984375,-0.0030543238390237093,-0.0054977829568088055,-0.004276053514331579
1775033840341435100,39.25543505859375,-0.002443459117785096,-0.006108647678047419,-0.0030543238390237093
1775033840392915700,39.30691577148438,-0.002443459117785096,-0.006108647678047419,-0.0030543238390237093
1775033840444396300,39.35839624023438,-0.002443459117785096,-0.0054977829568088055,-0.003665188793092966
1775033840495876900,39.409876953125,-0.0030543238390237093,-0.006108647678047419,-0.0030543238390237093
1775033840547357400,39.461357421875,-0.002443459117785096,-0.006108647678047419,-0.003665188793092966
1775033840598838000,39.51283813476562,-0.002443459117785096,-0.0054977829568088055,-0.003665188793092966
1775033840650318600,39.56431860351562,-0.0030543238390237093,-0.006719512399286032,-0.003665188793092966
1775033840701799200,39.615799072265624,-0.002443459117785096,-0.0054977829568088055,-0.004886918235570192
1775033840753279700,39.66727978515625,-0.002443459117785096,-0.006719512399286032,-0.003665188793092966
1775033840804760300,39.71876025390625,-0.002443459117785096,-0.004886918235570192,-0.0030543238390237093
1775033840856241000,39.77024096679688,-0.002443459117785096,-0.006108647678047419,-0.0030543238390237093
1775033840907721500,39.82172143554688,-0.002443459117785096,-0.006108647678047419,-0.004276053514331579
1775033840959202000,39.8732021484375,-0.002443459117785096,-0.006108647678047419,-0.003665188793092966
1775033841010682600,39.9246826171875,-0.0030543238390237093,-0.006108647678047419,-0.003665188793092966
1775033841062163200,39.9761630859375,-0.001832594396546483,-0.0054977829568088055,-0.003665188793092966
1775033841113643800,40.02764379882812,-0.002443459117785096,-0.006108647678047419,-0.0030543238390237093
1775033841165124400,40.07912426757812,-0.0030543238390237093,-0.006108647678047419,-0.0030543238390237093
1775033841216605000,40.13060498046875,-0.0030543238390237093,-0.0054977829568088055,-0.004276053514331579
1775033841268085500,40.18208544921875,-0.001832594396546483,-0.006719512399286032,-0.0030543238390237093
1775033841319566000,40.233566162109376,-0.002443459117785096,-0.0054977829568088055,-0.004276053514331579
1775033841371046700,40.28504663085938,-0.002443459117785096,-0.0054977829568088055,-0.003665188793092966
1775033841422527200,40.33652734375,-0.0030543238390237093,-0.0054977829568088055,-0.004276053514331579
1775033841474007800,40.3880078125,-0.0030543238390237093,-0.0054977829568088055,-0.004276053514331579
1775033841525488400,40.43948828125,-0.001832594396546483,-0.007330377586185932,-0.004276053514331579
1775033841576969000,40.49096899414062,-0.002443459117785096,-0.0054977829568088055,-0.003665188793092966
1775033841628449500,40.54244946289062,-0.0030543238390237093,-0.006108647678047419,-0.003665188793092966
1775033841679930000,40.59393017578125,-0.002443459117785096,-0.006108647678047419,-0.004276053514331579
1775033841774311200,40.688311279296876,-0.002443459117785096,-0.0054977829568088055,-0.003665188793092966
1775033841825791700,40.739791748046876,-0.002443459117785096,-0.0054977829568088055,-0.003665188793092966
1775033841877272300,40.79127221679688,-0.001832594396546483,-0.006108647678047419,-0.004276053514331579
1775033841928753000,40.8427529296875,-0.002443459117785096,-0.004886918235570192,-0.004276053514331579
1775033841980233500,40.8942333984375,-0.002443459117785096,-0.006108647678047419,-0.003665188793092966
1775033842031714000,40.94571411132812,-0.026878049597144127,0.7947350740432739,0.43004879355430603
1775033842083194600,40.99719458007812,0.03298669680953026,-0.8075632452964783,-0.6407971382141113
