time,seconds_elapsed,z,y,x
1775033801165239000,0.079239013671875,0.004276053514331579,-0.08613193035125732,-0.045967575162649155
1775033801216720000,0.130719970703125,0.0025961752980947495,-0.08857539296150208,-0.06062832847237587
1775033801268200700,0.18220068359375,-0.006872228812426329,0.21151192486286163,0.12583814561367035
1775033801319681500,0.233681640625,0.009010255336761475,-0.25442516803741455,-0.15607595443725586
1775033801371162400,0.285162353515625,-0.006566796451807022,0.16676609218120575,0.10934479534626007
1775033801422643200,0.336643310546875,0.0007635809597559273,0.001832594396546483,0.000610864779446274
1775033801474124000,0.3881240234375,0.003665188793092966,-0.08750637620687485,-0.05238165333867073
1775033801525605000,0.439605224609375,-0.000610864779446274,0.014202605932950974,0.009315688163042068
1775033801577086000,0.4910859375,-0.0009162971982732415,0.026419902220368385,0.01649334840476513
1775033801628566800,0.54256689453125,0,0,-0.000305432389723137
1775033801680047600,0.594047607421875,0,-0.00045814859913662076,-0.000305432389723137
1775033801731528400,0.645528564453125,-0.00045814859913662076,0.0001527161948615685,-0.000305432389723137
1775033801783009300,0.69700927734375,0,-0.000305432389723137,0
1775033801834490000,0.748489990234375,-0.0001527161948615685,-0.0001527161948615685,-0.00045814859913662076
1775033801885971000,0.799970947265625,0.0001527161948615685,0.000305432389723137,0.000305432389723137
1775033801937451800,0.85145166015625,-0.0001527161948615685,0,-0.000305432389723137
1775033801988932600,0.9029326171875,0.0001527161948615685,0,0
1775033802040413400,0.954413330078125,0.000305432389723137,0.000305432389723137,-0.000305432389723137
1775033802091894300,1.005894287109375,-0.00045814859913662076,-0.00045814859913662076,0
1775033802143375400,1.057375244140625,0.0001527161948615685,-0.0001527161948615685,-0.00045814859913662076
1775033802194856200,1.108856201171875,0.0001527161948615685,-0.0001527161948615685,-0.000305432389723137
1775033802246337000,1.1603369140625,0.0001527161948615685,-0.000305432389723137,0
1775033802297817900,1.21181787109375,0.00045814859913662076,0.000305432389723137,-0.000305432389723137
1775033802349298700,1.263298583984375,-0.0001527161948615685,-0.0001527161948615685,0.0001527161948615685
1775033802400779500,1.314779541015625,0,-0.000305432389723137,0
1775033802452260400,1.36626025390625,0,-0.0001527161948615685,0
1775033802503741200,1.4177412109375,0,-0.0001527161948615685,-0.000305432389723137
1775033802555222000,1.469221923828125,0,-0.000305432389723137,-0.00045814859913662076
1775033802606702800,1.520702880859375,0,0.000610864779446274,0
1775033802658183700,1.57218359375,-0.00045814859913662076,0,0.0001527161948615685
1775033802709664500,1.62366455078125,0,0,-0.000305432389723137
1775033802761145300,1.675145263671875,-0.0001527161948615685,0,0
1775033802812626200,1.726626220703125,0,0,-0.00045814859913662076
1775033802864107000,1.77810693359375,-0.0001527161948615685,0,-0.000305432389723137
1775033802915588000,1.829588134765625,0.0001527161948615685,0,0
1775033802967069000,1.88106884765625,0.0001527161948615685,-0.000610864779446274,-0.000610864779446274
1775033803018549800,1.9325498046875,-0.0001527161948615685,-0.0001527161948615685,0.000305432389723137
1775033803070030600,1.984030517578125,0.000305432389723137,-0.000305432389723137,0.000305432389723137
1775033803121511400,2.035511474609375,0.0001527161948615685,-0.000305432389723137,0
1775033803172992300,2.0869921875,-0.0001527161948615685,0.000305432389723137,0.000610864779446274
1775033803224473000,2.13847314453125,-0.0001527161948615685,0.000305432389723137,0.000305432389723137
1775033803275954000,2.189953857421875,0,-0.000305432389723137,-0.000305432389723137
1775033803327434800,2.241434814453125,0.0001527161948615685,0,-0.000305432389723137
1775033803378915600,2.29291552734375,0.0001527161948615685,0.000305432389723137,-0.0001527161948615685
1775033803430396400,2.344396484375,0.0001527161948615685,-0.000305432389723137,0.0001527161948615685
1775033803481877200,2.395877197265625,-0.0001527161948615685,0.0001527161948615685,0
1775033803533358000,2.447358154296875,0.0001527161948615685,0.000305432389723137,0
1775033803584839000,2.4988388671875,0.0001527161948615685,-0.000610864779446274,0.000305432389723137
1775033803636319700,2.55031982421875,0.0001527161948615685,0.0001527161948615685,-0.000305432389723137
1775033803687800600,2.601800537109375,0.0001527161948615685,0.00045814859913662076,0.0001527161948615685
1775033803739281400,2.653281494140625,0,0,0
1775033803790762200,2.70476220703125,-0.0001527161948615685,-0.000305432389723137,0.0001527161948615685
1775033803842243000,2.7562431640625,-0.0001527161948615685,-0.000305432389723137,0.000305432389723137
1775033803893724000,2.807723876953125,-0.000305432389723137,-0.000305432389723137,-0.000305432389723137
1775033803945204700,2.859204833984375,0,0,-0.000610864779446274
1775033803996685800,2.910685791015625,0.0001527161948615685,-0.0001527161948615685,0.000305432389723137
1775033804048166700,2.962166748046875,0.0001527161948615685,-0.0001527161948615685,0
1775033804099647500,3.0136474609375,-0.0001527161948615685,0,-0.0001527161948615685
1775033804151128300,3.06512841796875,-0.0001527161948615685,0.0001527161948615685,0.0001527161948615685
1775033804202609200,3.116609130859375,0,-0.000305432389723137,0
1775033804254090000,3.168090087890625,0.0001527161948615685,0,0
1775033804305570800,3.21957080078125,-0.0001527161948615685,-0.000305432389723137,0
1775033804357051600,3.2710517578125,0.0001527161948615685,0.0001527161948615685,0
1775033804408532500,3.322532470703125,-0.0001527161948615685,0,-0.000305432389723137
1775033804460013300,3.374013427734375,-0.0001527161948615685,-0.00045814859913662076,0.0001527161948615685
1775033804511494100,3.425494140625,0.0001527161948615685,-0.0001527161948615685,0
1775033804562975000,3.47697509765625,0.0001527161948615685,-0.000305432389723137,-0.000305432389723137
1775033804614455800,3.528455810546875,0.0001527161948615685,0,0
1775033804665936600,3.5799365234375,0.0001527161948615685,-0.0001527161948615685,0
1775033804717417500,3.63141748046875,0.0001527161948615685,-0.0001527161948615685,-0.0001527161948615685
1775033804768898300,3.682898193359375,-0.0001527161948615685,0,0
1775033804820379100,3.734379150390625,0,-0.000610864779446274,-0.0001527161948615685
1775033804871860000,3.78585986328125,0.0001527161948615685,-0.0001527161948615685,-0.00045814859913662076
1775033804923340800,3.8373408203125,-0.0001527161948615685,-0.0001527161948615685,0
1775033804974821600,3.888821533203125,0.0001527161948615685,-0.000305432389723137,0
1775033805026302500,3.940302490234375,-0.0001527161948615685,0,-0.0001527161948615685
1775033805077783300,3.991783203125,-0.0001527161948615685,-0.0001527161948615685,-0.0001527161948615685
1775033805129264000,4.04326416015625,0.0001527161948615685,-0.00045814859913662076,-0.000305432389723137
1775033805180745000,4.094744873046875,0,0,-0.000305432389723137
1775033805232225800,4.146225830078125,0,-0.00045814859913662076,-0.00045814859913662076
1775033805283706600,4.19770654296875,0,0.000305432389723137,0.0001527161948615685
1775033805335187500,4.2491875,0.0001527161948615685,0,0.000305432389723137
1775033805386668300,4.300668212890625,0.0001527161948615685,-0.00045814859913662076,-0.0001527161948615685
1775033805438149000,4.352149169921875,0.000305432389723137,-0.000305432389723137,0.000305432389723137
1775033805489630000,4.4036298828125,0,0,-0.0007635809597559273
1775033805541110800,4.45511083984375,0.0001527161948615685,-0.000305432389723137,0
1775033805592591600,4.506591552734375,-0.00045814859913662076,0,0
1775033805644072400,4.558072509765625,-0.0001527161948615685,-0.000305432389723137,0.00045814859913662076
1775033805695553300,4.60955322265625,0,0,0
1775033805747034000,4.6610341796875,0.0001527161948615685,-0.000305432389723137,0
1775033805798515000,4.712514892578125,0.00045814859913662076,0.000305432389723137,0
1775033805849995800,4.763995849609375,0.0001527161948615685,-0.0001527161948615685,-0.0001527161948615685
1775033805901476600,4.8154765625,-0.0001527161948615685,0,0.000305432389723137
1775033805952957400,4.86695751953125,0,-0.000305432389723137,-0.000305432389723137
1775033806004438300,4.918438232421875,0.0001527161948615685,0.000305432389723137,0.0001527161948615685
1775033806055919000,4.969919189453125,0.0001527161948615685,0,-0.0001527161948615685
1775033806107399700,5.021399658203125,-0.000305432389723137,0.0001527161948615685,-0.000305432389723137
1775033806158880500,5.072880615234375,0.0001527161948615685,0.0001527161948615685,0
1775033806210361300,5.124361328125,0,0,-0.0001527161948615685
1775033806261842200,5.17584228515625,0,0,-0.00045814859913662076
1775033806313323000,5.227322998046875,0,0,0
1775033806364803800,5.278803955078125,-0.0001527161948615685,0,-0.000305432389723137
1775033806416284700,5.33028466796875,0.0001527161948615685,0,0.0001527161948615685
1775033806467765500,5.381765625,-0.0001527161948615685,0,0.0001527161948615685
1775033806519246300,5.433246337890625,-0.0001527161948615685,0.00045814859913662076,0
1775033806570727200,5.48472705078125,0.000305432389723137,-0.000305432389723137,0
1775033806622208000,5.5362080078125,-0.0001527161948615685,0.0001527161948615685,0.0001527161948615685
1775033806673688800,5.587688720703125,0.0001527161948615685,0,-0.0001527161948615685
1775033806725169700,5.639169677734375,0.0001527161948615685,-0.0001527161948615685,0.000305432389723137
1775033806776650500,5.690650390625,0,0,-0.000305432389723137
1775033806828131300,5.74213134765625,0.0001527161948615685,0,-0.00045814859913662076
1775033806879612200,5.793612060546875,0.0001527161948615685,0,-0.000305432389723137
1775033806931092700,5.8450927734375,0.0001527161948615685,0,0
1775033806982573600,5.896573486328125,0,-0.0001527161948615685,0
1775033807034054400,5.948054443359375,-0.000305432389723137,0,-0.000305432389723137
1775033807085535200,5.99953515625,0,0,-0.000305432389723137
1775033807137016000,6.05101611328125,0,0.0001527161948615685,0
1775033807188497000,6.102496826171875,-0.000305432389723137,0,-0.0001527161948615685
1775033807239977700,6.153977783203125,0.0001527161948615685,-0.000305432389723137,0.00045814859913662076
1775033807291458600,6.20545849609375,0,0,-0.0001527161948615685
1775033807342939400,6.256939453125,-0.0001527161948615685,0.000305432389723137,0
1775033807394420200,6.308420166015625,-0.0001527161948615685,-0.00045814859913662076,-0.000305432389723137
1775033807445901000,6.359901123046875,0.0001527161948615685,-0.000305432389723137,0
1775033807497382000,6.4113818359375,-0.0001527161948615685,0.000305432389723137,-0.0001527161948615685
1775033807548862700,6.46286279296875,0,0,0.000305432389723137
1775033807600343300,6.51434326171875,0,0,-0.000305432389723137
1775033807651824000,6.56582421875,-0.0001527161948615685,0.000305432389723137,0.00045814859913662076
1775033807703305000,6.617304931640625,-0.0001527161948615685,0,0
1775033807754785800,6.668785888671875,-0.0001527161948615685,-0.000305432389723137,0
1775033807806266600,6.7202666015625,0,0,-0.000610864779446274
1775033807857747500,6.77174755859375,-0.0001527161948615685,-0.0001527161948615685,-0.000610864779446274
1775033807909228300,6.823228271484375,0.0001527161948615685,0,-0.0001527161948615685
1775033807960709000,6.874709228515625,-0.0001527161948615685,-0.000305432389723137,0.000305432389723137
1775033808012190000,6.92618994140625,0.0001527161948615685,0,0
1775033808063670500,6.97767041015625,-0.000305432389723137,-0.0001527161948615685,0.0001527161948615685
1775033808115151400,7.0291513671875,0,0,-0.0001527161948615685
1775033808166632200,7.080632080078125,-0.0001527161948615685,0.0001527161948615685,0.000305432389723137
1775033808218113000,7.132113037109375,0.0001527161948615685,-0.00045814859913662076,0.0001527161948615685
1775033808269593900,7.18359375,0.0001527161948615685,-0.000305432389723137,0
1775033808321074700,7.23507470703125,0.000305432389723137,0,-0.0001527161948615685
1775033808372555500,7.286555419921875,0.0001527161948615685,-0.000305432389723137,-0.0001527161948615685
1775033808424036400,7.338036376953125,0.0001527161948615685,-0.000305432389723137,-0.00045814859913662076
1775033808475517000,7.389516845703125,-0.0001527161948615685,-0.000305432389723137,0
1775033808526997800,7.440997802734375,0.0001527161948615685,0.000305432389723137,0
1775033808578478600,7.492478515625,0,0.000305432389723137,-0.0001527161948615685
1775033808629959400,7.54395947265625,0.000305432389723137,0,-0.0007635809597559273
1775033808681440300,7.595440185546875,0.0001527161948615685,0.000305432389723137,0
1775033808732921000,7.646921142578125,0,0.0001527161948615685,0
1775033808784402000,7.69840185546875,0,0,-0.000610864779446274
1775033808835882500,7.749882568359375,-0.0001527161948615685,-0.00045814859913662076,-0.000305432389723137
1775033808887363300,7.80136328125,-0.0001527161948615685,-0.0001527161948615685,-0.000610864779446274
1775033808938844200,7.85284423828125,0.000305432389723137,0,0.000305432389723137
1775033808990325000,7.904324951171875,0,-0.0001527161948615685,0.0001527161948615685
1775033809041805800,7.955805908203125,-0.0001527161948615685,0,0.0001527161948615685
1775033809093286700,8.00728662109375,-0.0001527161948615685,0.0001527161948615685,-0.0001527161948615685
1775033809144767200,8.058767333984376,0,-0.0001527161948615685,0.00045814859913662076
1775033809196248000,8.110248046875,0,-0.0001527161948615685,0.0001527161948615685
1775033809247729000,8.16172900390625,0,0.0001527161948615685,0.0001527161948615685
1775033809299209700,8.213209716796875,0,0.0001527161948615685,-0.0001527161948615685
1775033809350690600,8.264690673828126,-0.0001527161948615685,0,-0.000610864779446274
1775033809402171400,8.31617138671875,0,0.0001527161948615685,-0.0001527161948615685
1775033809453652200,8.36765234375,0.0001527161948615685,-0.0001527161948615685,0.0001527161948615685
1775033809505132800,8.4191328125,0.000305432389723137,0.0001527161948615685,0.000305432389723137
1775033809556613600,8.470613525390625,-0.0001527161948615685,0,-0.000305432389723137
1775033809608094500,8.522094482421876,-0.000305432389723137,0.0001527161948615685,0.0001527161948615685
1775033809659575300,8.5735751953125,0.0001527161948615685,-0.00045814859913662076,-0.0001527161948615685
1775033809711056100,8.62505615234375,0.0001527161948615685,0.0001527161948615685,-0.0001527161948615685
1775033809762536700,8.67653662109375,0.0001527161948615685,-0.0001527161948615685,-0.0001527161948615685
1775033809814017500,8.728017578125,0,0,0.0001527161948615685
1775033809865498400,8.779498291015624,-0.0001527161948615685,-0.0007635809597559273,0
1775033809916979200,8.830979248046875,-0.0001527161948615685,0,0.0001527161948615685
1775033809968460000,8.8824599609375,-0.0001527161948615685,-0.000305432389723137,0.0001527161948615685
1775033810019940900,8.93394091796875,0,0,0.0001527161948615685
1775033810071421400,8.98542138671875,-0.0001527161948615685,0,-0.0001527161948615685
1775033810122902300,9.03690234375,-0.0001527161948615685,-0.0001527161948615685,0.0001527161948615685
1775033810174383000,9.088383056640625,0.0001527161948615685,-0.0001527161948615685,0
1775033810225864000,9.139864013671875,0,0.0001527161948615685,0.0001527161948615685
1775033810277344800,9.1913447265625,0.0001527161948615685,0,-0.0001527161948615685
1775033810328825300,9.242825439453124,0.0001527161948615685,-0.0001527161948615685,-0.000305432389723137
1775033810380306200,9.29430615234375,0.0001527161948615685,0.0001527161948615685,-0.0007635809597559273
1775033810431787000,9.345787109375,-0.0001527161948615685,-0.0001527161948615685,-0.000305432389723137
1775033810483267800,9.397267822265626,0.000305432389723137,-0.0001527161948615685,-0.0001527161948615685
1775033810534748700,9.448748779296874,-0.000305432389723137,-0.0001527161948615685,0.0001527161948615685
1775033810586229500,9.5002294921875,0,0.0001527161948615685,-0.000305432389723137
1775033810637710000,9.5517099609375,0,-0.000305432389723137,0.0001527161948615685
1775033810689191000,9.60319091796875,0.0001527161948615685,0,0.0001527161948615685
1775033810740671700,9.654671630859376,-0.0001527161948615685,-0.0001527161948615685,-0.00045814859913662076
1775033810792152600,9.706152587890625,-0.0001527161948615685,-0.000305432389723137,-0.00045814859913662076
1775033810843633200,9.757633056640625,0.0001527161948615685,0.000305432389723137,-0.0001527161948615685
1775033810895114000,9.809114013671875,-0.0001527161948615685,-0.0001527161948615685,0.0001527161948615685
1775033810946594800,9.8605947265625,0.0001527161948615685,0.0001527161948615685,-0.000305432389723137
1775033810998075600,9.91207568359375,0,0.0001527161948615685,0.000305432389723137
1775033811049556500,9.963556396484375,0.00045814859913662076,0,0.0001527161948615685
1775033811101037300,10.015037353515625,-0.0001527161948615685,-0.000305432389723137,-0.00045814859913662076
1775033811152518000,10.066517822265626,-0.0001527161948615685,-0.0001527161948615685,0.000305432389723137
1775033811203998700,10.117998779296874,0.0001527161948615685,-0.0001527161948615685,-0.0001527161948615685
1775033811255479600,10.1694794921875,0,-0.0001527161948615685,-0.0001527161948615685
1775033811306960400,10.22096044921875,0,0.0001527161948615685,0.000305432389723137
1775033811358441200,10.272441162109375,0.0001527161948615685,0.0001527161948615685,-0.0001527161948615685
1775033811409921800,10.323921875,0.000305432389723137,0.0001527161948615685,-0.0001527161948615685
1775033811461402600,10.375402587890624,-0.0001527161948615685,0,0
1775033811512883500,10.426883544921875,-0.0001527161948615685,0.0001527161948615685,-0.0001527161948615685
1775033811564364300,10.4783642578125,0.0001527161948615685,-0.0001527161948615685,0
1775033811615844900,10.529844970703126,0,-0.0001527161948615685,0
1775033811667325700,10.58132568359375,-0.0001527161948615685,0.0001527161948615685,0
1775033811718806500,10.632806640625,-0.0001527161948615685,0.0001527161948615685,0.000305432389723137
1775033811770287400,10.684287353515625,0.0001527161948615685,0.0001527161948615685,-0.0001527161948615685
1775033811821768000,10.735767822265625,0.0001527161948615685,0,-0.0001527161948615685
1775033811873248800,10.787248779296876,0.0001527161948615685,-0.0001527161948615685,-0.0001527161948615685
1775033811924729600,10.8387294921875,0.000305432389723137,-0.00045814859913662076,0
1775033811976210400,10.89021044921875,0.0001527161948615685,0,0.0001527161948615685
1775033812027691300,10.941691162109375,0.0001527161948615685,-0.0001527161948615685,0.000305432389723137
1775033812079171800,10.993171875,0.0001527161948615685,-0.0001527161948615685,0.0001527161948615685
1775033812130652700,11.044652587890624,0.0001527161948615685,-0.000305432389723137,-0.0001527161948615685
1775033812182133500,11.096133544921875,-0.000305432389723137,-0.00045814859913662076,0.0001527161948615685
1775033812233614000,11.147614013671875,0.0001527161948615685,-0.0001527161948615685,-0.0001527161948615685
1775033812285095000,11.199094970703126,0.0001527161948615685,-0.000305432389723137,-0.0001527161948615685
1775033812336575700,11.25057568359375,0.0001527161948615685,0.000305432389723137,0
1775033812388056600,11.302056640625,0,-0.0001527161948615685,0.000305432389723137
1775033812439537200,11.353537109375,0,0.0001527161948615685,0.000305432389723137
1775033812491018000,11.40501806640625,-0.0001527161948615685,0.0001527161948615685,-0.0001527161948615685
1775033812542498800,11.456498779296876,-0.0001527161948615685,0.0001527161948615685,-0.0001527161948615685
1775033812593979600,11.507979736328124,0.0001527161948615685,0,0
1775033812645460200,11.559460205078125,0,-0.00045814859913662076,0.0001527161948615685
1775033812696941000,11.610941162109375,0,-0.0001527161948615685,-0.0001527161948615685
1775033812748422000,11.662421875,0.00045814859913662076,0.0001527161948615685,0
1775033812799902500,11.71390234375,-0.00045814859913662076,-0.00045814859913662076,-0.000305432389723137
1775033812851383300,11.76538330078125,-0.00045814859913662076,0.0001527161948615685,-0.000305432389723137
1775033812902864100,11.816864013671875,-0.0001527161948615685,0.000305432389723137,-0.0001527161948615685
1775033812954345000,11.868344970703125,0.0001527161948615685,0.0001527161948615685,-0.000305432389723137
1775033813005825500,11.919825439453126,0.0001527161948615685,-0.0001527161948615685,-0.0001527161948615685
1775033813057306400,11.971306396484374,0.0001527161948615685,0,0
1775033813108787200,12.022787109375,-0.0001527161948615685,-0.0001527161948615685,0
1775033813160268000,12.07426806640625,0.0001527161948615685,0,0.0001527161948615685
1775033813211748600,12.12574853515625,0.0001527161948615685,0.0001527161948615685,-0.000305432389723137
1775033813263229400,12.1772294921875,-0.0001527161948615685,-0.000305432389723137,0.0001527161948615685
1775033813314710300,12.228710205078125,-0.0001527161948615685,0.0001527161948615685,0.0001527161948615685
1775033813366190800,12.28019091796875,0.0001527161948615685,0.0001527161948615685,0.0001527161948615685
1775033813417671700,12.331671630859375,0.000305432389723137,-0.0001527161948615685,0
1775033813469152500,12.383152587890624,-0.0001527161948615685,0.0001527161948615685,0.0001527161948615685
1775033813520633000,12.434633056640624,-0.0001527161948615685,0.0001527161948615685,0.0001527161948615685
1775033813572114000,12.486114013671875,0,0.00045814859913662076,0.0001527161948615685
1775033813623594800,12.5375947265625,0.0001527161948615685,0.000305432389723137,0.0001527161948615685
1775033813675075300,12.589075439453126,0.0001527161948615685,0,0.00045814859913662076
1775033813726556200,12.64055615234375,0.0001527161948615685,-0.0001527161948615685,0
1775033813778037000,12.692037109375,0.0001527161948615685,0,0.0001527161948615685
1775033813829517600,12.743517578125,0.0001527161948615685,0,0.0001527161948615685
1775033813880998400,12.794998291015625,-0.0001527161948615685,0,-0.00045814859913662076
1775033813932479200,12.846479248046874,0.0001527161948615685,0.0001527161948615685,-0.0001527161948615685
1775033813983959800,12.897959716796874,-0.0001527161948615685,0,-0.0001527161948615685
1775033814035440600,12.949440673828125,-0.0001527161948615685,0,-0.00045814859913662076
1775033814086921500,13.00092138671875,0.0001527161948615685,0.000305432389723137,0.0001527161948615685
1775033814138402000,13.052402099609376,0.0001527161948615685,-0.0001527161948615685,-0.0001527161948615685
1775033814189883000,13.1038828125,0.0001527161948615685,0.0001527161948615685,0.0001527161948615685
1775033814241363700,13.15536376953125,-0.0001527161948615685,0.0001527161948615685,0.0001527161948615685
1775033814292844300,13.20684423828125,-0.0001527161948615685,-0.0001527161948615685,0.0001527161948615685
1775033814344325000,13.2583251953125,-0.0001527161948615685,0,-0.0001527161948615685
1775033814395806000,13.309805908203124,-0.0001527161948615685,-0.0001527161948615685,-0.0001527161948615685
1775033814447286500,13.36128662109375,0.00045814859913662076,0,-0.0001527161948615685
1775033814498767400,13.412767333984375,-0.0001527161948615685,-0.0001527161948615685,0
1775033814550248200,13.464248291015625,0.0001527161948615685,0,0.0001527161948615685
1775033814601728800,13.515728759765626,0,0.0001527161948615685,-0.0001527161948615685
1775033814653209600,13.567209716796874,-0.0001527161948615685,-0.0001527161948615685,0.0001527161948615685
1775033814704690200,13.618690185546875,0.0001527161948615685,0,0.0001527161948615685
1775033814756171000,13.6701708984375,0.0001527161948615685,0.0001527161948615685,0.000305432389723137
1775033814807651800,13.72165185546875,0.00045814859913662076,-0.0001527161948615685,-0.00045814859913662076
1775033814859132400,13.77313232421875,0.0001527161948615685,-0.00045814859913662076,0.0001527161948615685
1775033814910613200,13.82461328125,0,-0.0001527161948615685,-0.0001527161948615685
1775033814962094000,13.876093994140625,-0.0001527161948615685,0.000305432389723137,-0.000305432389723137
1775033815013574700,13.92757470703125,0,-0.0001527161948615685,-0.0001527161948615685
1775033815065055500,13.979055419921876,0.0001527161948615685,-0.0001527161948615685,0
1775033815116536000,14.0305361328125,0.0001527161948615685,0.0001527161948615685,-0.0001527161948615685
1775033815168017000,14.082016845703125,-0.0001527161948615685,0,-0.0001527161948615685
1775033815219497500,14.13349755859375,0.0001527161948615685,0,0
1775033815270978300,14.184978271484376,-0.0001527161948615685,-0.0001527161948615685,0.00045814859913662076
1775033815322459100,14.236459228515624,-0.0001527161948615685,-0.0010690133785828948,0.0001527161948615685
1775033815373939700,14.287939697265625,0,0.0001527161948615685,0.000305432389723137
1775033815425420500,14.339420654296875,0.0001527161948615685,-0.00045814859913662076,0.0001527161948615685
1775033815476901400,14.3909013671875,0.000305432389723137,-0.0001527161948615685,-0.000610864779446274
1775033815528382000,14.4423818359375,-0.0001527161948615685,0.000305432389723137,-0.0001527161948615685
1775033815579862800,14.49386279296875,0,-0.000305432389723137,-0.0001527161948615685
1775033815631343400,14.54534326171875,-0.0001527161948615685,0.000305432389723137,-0.0001527161948615685
1775033815682824200,14.59682421875,0,0.0001527161948615685,0
1775033815734305000,14.648304931640626,0.0001527161948615685,-0.0001527161948615685,-0.0001527161948615685
1775033815785785600,14.69978564453125,0.0001527161948615685,0.0001527161948615685,0
1775033815837266400,14.751266357421875,0.0001527161948615685,0.0001527161948615685,-0.000305432389723137
1775033815888747000,14.8027470703125,0.0001527161948615685,-0.0001527161948615685,-0.0001527161948615685
1775033815940227800,14.854227783203125,0.0001527161948615685,0.000305432389723137,0.0001527161948615685
1775033815991708700,14.905708740234376,-0.0001527161948615685,-0.00045814859913662076,0.0001527161948615685
1775033816043189200,14.957189208984374,0,0.0001527161948615685,-0.0001527161948615685
1775033816094670000,15.008670166015625,0.0001527161948615685,-0.0001527161948615685,0
1775033816146150700,15.060150634765625,0.0001527161948615685,0,0.0001527161948615685
1775033816197631500,15.111631591796876,-0.0001527161948615685,0.0001527161948615685,-0.0001527161948615685
1775033816249112300,15.1631123046875,0.0001527161948615685,-0.0001527161948615685,0.0001527161948615685
1775033816300593000,15.214593017578125,0,0.000305432389723137,0.0001527161948615685
1775033816352073700,15.26607373046875,0,0.0001527161948615685,-0.000305432389723137
1775033816403554300,15.31755419921875,0,-0.0001527161948615685,0
1775033816455035100,15.36903515625,0,0,0
1775033816506516000,15.420515869140624,0.0001527161948615685,-0.000305432389723137,0.0001527161948615685
1775033816557996500,15.47199658203125,0.0001527161948615685,0.0001527161948615685,-0.00045814859913662076
1775033816609477400,15.523477294921875,-0.00045814859913662076,0,-0.0007635809597559273
1775033816660958000,15.5749580078125,-0.00045814859913662076,-0.0001527161948615685,-0.0001527161948615685
1775033816712438800,15.626438720703124,-0.000305432389723137,-0.0001527161948615685,0.000305432389723137
1775033816763919600,15.677919677734375,-0.0001527161948615685,-0.0001527161948615685,0.0001527161948615685
1775033816815400200,15.729400146484375,0,0.00045814859913662076,0
1775033816866881000,15.780881103515625,0.000305432389723137,0.00045814859913662076,0.0001527161948615685
1775033816918361600,15.832361572265626,0,0,-0.0001527161948615685
1775033816969842400,15.883842529296874,0.000305432389723137,-0.0001527161948615685,-0.0001527161948615685
1775033817021323000,15.935322998046875,-0.0001527161948615685,-0.000305432389723137,0.0001527161948615685
1775033817072803800,15.986803955078125,-0.0001527161948615685,0.0001527161948615685,-0.0001527161948615685
1775033817124284700,16.03828466796875,-0.0001527161948615685,-0.00045814859913662076,0.0001527161948615685
1775033817175765200,16.08976513671875,0,-0.0001527161948615685,-0.0001527161948615685
1775033817227246000,16.14124609375,-0.0001527161948615685,0,-0.0001527161948615685
1775033817278726700,16.1927265625,0.0001527161948615685,-0.0001527161948615685,0.0001527161948615685
1775033817330207500,16.24420751953125,0.0001527161948615685,-0.000305432389723137,0.00045814859913662076
1775033817381688000,16.29568798828125,0.0001527161948615685,-0.0001527161948615685,0.0001527161948615685
1775033817433169000,16.3471689453125,0,-0.0001527161948615685,0
1775033817484649500,16.3986494140625,-0.000305432389723137,-0.0001527161948615685,0.0001527161948615685
1775033817536130300,16.45013037109375,0.0001527161948615685,0.0001527161948615685,0.0001527161948615685
1775033817587611100,16.501611083984375,-0.0001527161948615685,-0.0001527161948615685,-0.000305432389723137
1775033817639091700,16.553091796875,0.0001527161948615685,0.000305432389723137,-0.0001527161948615685
1775033817690572500,16.604572509765624,-0.0001527161948615685,-0.0001527161948615685,0
1775033817742053000,16.65605322265625,0.0001527161948615685,-0.000305432389723137,0
1775033817793534000,16.707533935546873,-0.0001527161948615685,0,0.00045814859913662076
1775033817845014500,16.7590146484375,0.000305432389723137,-0.0001527161948615685,-0.000305432389723137
1775033817896495400,16.810495361328126,-0.0001527161948615685,-0.00045814859913662076,0.0001527161948615685
1775033817947976000,16.861975830078126,0.00045814859913662076,0,0
1775033817999456800,16.913456787109375,0.0001527161948615685,-0.0001527161948615685,0.0001527161948615685
1775033818050937600,16.9649375,-0.000305432389723137,0,-0.0001527161948615685
1775033818102418200,17.016418212890624,-0.0001527161948615685,-0.000305432389723137,0.0001527161948615685
1775033818153899000,17.06789892578125,0.000305432389723137,-0.0001527161948615685,-0.0001527161948615685
1775033818205379600,17.119379638671877,0,0.0001527161948615685,0.0001527161948615685
1775033818256860400,17.1708603515625,-0.0001527161948615685,0.000305432389723137,-0.0001527161948615685
1775033818308341000,17.222341064453126,0.0001527161948615685,0.0001527161948615685,0.0001527161948615685
1775033818359821800,17.27382177734375,-0.000305432389723137,0.0001527161948615685,0.000305432389723137
1775033818411302400,17.325302490234375,0,-0.0001527161948615685,-0.0001527161948615685
1775033818462783200,17.376783203125,0.0001527161948615685,0.0001527161948615685,0
1775033818514263800,17.428263916015624,0.0001527161948615685,0.0001527161948615685,0
1775033818565744600,17.47974462890625,0.000305432389723137,0.000305432389723137,-0.0001527161948615685
1775033818617225200,17.53122509765625,0,-0.0001527161948615685,0.0001527161948615685
1775033818668706000,17.5827060546875,0,-0.00045814859913662076,0.0001527161948615685
1775033818720186600,17.6341865234375,0.0001527161948615685,0.0001527161948615685,0.000305432389723137
1775033818771667500,17.68566748046875,0.00045814859913662076,0.0001527161948615685,0.0001527161948615685
1775033818823148000,17.73714794921875,0,0.0001527161948615685,-0.000305432389723137
1775033818874628900,17.78862890625,-0.0001527161948615685,-0.00045814859913662076,-0.0001527161948615685
1775033818926109400,17.840109375,0.000305432389723137,0.0001527161948615685,-0.0001527161948615685
1775033818977590300,17.89159033203125,-0.0001527161948615685,0.0001527161948615685,-0.00045814859913662076
1775033819029070800,17.94307080078125,0,-0.0001527161948615685,0.0001527161948615685
1775033819080551700,17.9945517578125,0,-0.0001527161948615685,0.0001527161948615685
1775033819132032300,18.0460322265625,0.0001527161948615685,-0.0001527161948615685,0.000305432389723137
1775033819183513000,18.09751318359375,0.0001527161948615685,0.0001527161948615685,0.0001527161948615685
1775033819234993700,18.14899365234375,0.0001527161948615685,0.0001527161948615685,0
1775033819286474500,18.200474609375,0.0001527161948615685,0,-0.000305432389723137
1775033819337955300,18.251955322265626,0.0001527161948615685,0.0001527161948615685,-0.0001527161948615685
1775033819389436000,18.303435791015627,0,0.00045814859913662076,-0.00045814859913662076
1775033819440916700,18.354916748046875,0.0001527161948615685,-0.0001527161948615685,-0.0001527161948615685
1775033819492397300,18.406397216796876,0,0.0001527161948615685,0
1775033819543878100,18.457878173828124,-0.0001527161948615685,-0.0001527161948615685,0.000305432389723137
1775033819595358700,18.509358642578125,0,0.0001527161948615685,-0.0001527161948615685
1775033819646839600,18.560839599609373,0.0001527161948615685,-0.0001527161948615685,0.000305432389723137
1775033819698320100,18.612320068359374,0.0001527161948615685,-0.000305432389723137,-0.0001527161948615685
1775033819749801000,18.663801025390626,-0.0001527161948615685,-0.000610864779446274,0
1775033819801281500,18.715281494140626,-0.0001527161948615685,-0.000305432389723137,0
1775033819852762400,18.766762451171875,0.0001527161948615685,0.0001527161948615685,-0.0001527161948615685
1775033819904243000,18.818242919921875,0.0001527161948615685,-0.000305432389723137,-0.0001527161948615685
1775033819955723500,18.8697236328125,-0.0001527161948615685,0.0001527161948615685,0
1775033820007204400,18.921204345703124,0.0001527161948615685,0.0001527161948615685,0
1775033820058685000,18.972684814453125,0,0,-0.0001527161948615685
1775033820110165800,19.024165771484373,0.000305432389723137,-0.0001527161948615685,0.0001527161948615685
1775033820161646300,19.075646240234374,0.0001527161948615685,-0.0001527161948615685,-0.0001527161948615685
1775033820213127200,19.127127197265626,0,0.000305432389723137,-0.000305432389723137
1775033820264607700,19.178607666015626,0,0.0001527161948615685,0.000610864779446274
1775033820316088600,19.230088623046875,-0.000305432389723137,0.0001527161948615685,-0.00045814859913662076
1775033820367569200,19.281569091796875,0.0001527161948615685,-0.0001527161948615685,0
1775033820419050000,19.333050048828124,-0.0001527161948615685,-0.0001527161948615685,0.000305432389723137
1775033820470530600,19.384530517578124,0.0001527161948615685,-0.00045814859913662076,0
1775033820522011100,19.43601123046875,0.0001527161948615685,0.0001527161948615685,-0.0001527161948615685
1775033820573492000,19.487491943359377,0.0001527161948615685,-0.000305432389723137,0.0001527161948615685
1775033820624972500,19.53897265625,0,0.00045814859913662076,-0.000305432389723137
1775033820676453400,19.590453369140626,0,0.0001527161948615685,0
1775033820727934000,19.641933837890626,0.0001527161948615685,0,-0.0001527161948615685
1775033820779414800,19.693414794921875,0,-0.000305432389723137,-0.0001527161948615685
1775033820830895400,19.744895263671875,0.0001527161948615685,-0.0001527161948615685,-0.00045814859913662076
1775033820882376000,19.7963759765625,0,0.0001527161948615685,0.00045814859913662076
1775033820933856800,19.847856689453124,-0.0001527161948615685,-0.0001527161948615685,0
1775033820985337300,19.89933740234375,0.0001527161948615685,0.00045814859913662076,-0.0001527161948615685
1775033821036818200,19.950818115234377,0,-0.0001527161948615685,0
1775033821088298800,20.002298828125,0.000305432389723137,0,-0.0001527161948615685
1775033821139779300,20.053779296875,0.0001527161948615685,-0.00045814859913662076,-0.000305432389723137
1775033821191260200,20.10526025390625,0.0001527161948615685,-0.0001527161948615685,-0.0001527161948615685
1775033821242740700,20.15674072265625,0,0.00045814859913662076,-0.0001527161948615685
1775033821294221600,20.2082216796875,0.0001527161948615685,-0.0001527161948615685,-0.0001527161948615685
1775033821345702100,20.2597021484375,0,-0.0001527161948615685,-0.0001527161948615685
1775033821397183000,20.311182861328124,0.0001527161948615685,-0.0001527161948615685,0.0001527161948615685
1775033821448663600,20.36266357421875,-0.0001527161948615685,0.0001527161948615685,-0.00045814859913662076
1775033821500144000,20.41414404296875,0,0,0.0001527161948615685
1775033821551625000,20.465625,0.00045814859913662076,-0.000305432389723137,0
1775033821603105500,20.51710546875,-0.0001527161948615685,0.0001527161948615685,0.000305432389723137
1775033821654586400,20.56858642578125,0,0.0001527161948615685,-0.00045814859913662076
1775033821706067000,20.62006689453125,0,-0.0001527161948615685,-0.00045814859913662076
1775033821757547500,20.671547607421875,-0.0001527161948615685,0.0001527161948615685,0.0001527161948615685
1775033821809028400,20.7230283203125,-0.0001527161948615685,0,-0.000305432389723137
1775033821860509000,20.774509033203124,0,-0.0001527161948615685,0.0001527161948615685
1775033821911989800,20.82598974609375,-0.0001527161948615685,-0.00045814859913662076,0.0001527161948615685
1775033821963470300,20.87747021484375,0.0001527161948615685,0,-0.0001527161948615685
1775033822014951000,20.928950927734373,0.0001527161948615685,0.00045814859913662076,0
1775033822066431700,20.980431640625,0,0.0001527161948615685,0
1775033822117912300,21.031912353515626,0,-0.0001527161948615685,-0.0001527161948615685
1775033822169393200,21.08339306640625,-0.0001527161948615685,0.0001527161948615685,0
1775033822220873700,21.134873779296875,0.0001527161948615685,-0.0001527161948615685,0.0001527161948615685
1775033822272354300,21.186354248046875,0.0001527161948615685,-0.00045814859913662076,-0.000305432389723137
1775033822323835100,21.237835205078124,-0.0001527161948615685,-0.000305432389723137,0.0001527161948615685
1775033822375315700,21.289315673828124,0,-0.0001527161948615685,-0.0001527161948615685
1775033822426796500,21.340796630859376,0.0001527161948615685,0.000305432389723137,0
1775033822478277000,21.392277099609377,0,0.000305432389723137,0.0001527161948615685
1775033822529757700,21.4437578125,0,-0.0001527161948615685,-0.000305432389723137
1775033822581238500,21.495238525390626,0,0,-0.0001527161948615685
1775033822632719000,21.546718994140626,0.0001527161948615685,0.0001527161948615685,-0.0001527161948615685
1775033822684200000,21.598199951171875,-0.0001527161948615685,-0.0001527161948615685,-0.0001527161948615685
1775033822735680500,21.649680419921875,-0.0001527161948615685,0,0.0001527161948615685
1775033822787161000,21.7011611328125,0.0001527161948615685,-0.0001527161948615685,-0.0001527161948615685
1775033822838642000,21.752641845703124,0,0,0
1775033822890122500,21.80412255859375,0,0,0
1775033822941603300,21.855603271484377,0.0001527161948615685,0.0001527161948615685,0.0001527161948615685
1775033822993084000,21.907083984375,0.0001527161948615685,0.000305432389723137,-0.000610864779446274
1775033823044564500,21.958564453125,0.0001527161948615685,0.0001527161948615685,0.0001527161948615685
1775033823096045000,22.010045166015626,-0.0001527161948615685,-0.00045814859913662076,-0.00045814859913662076
1775033823147526000,22.06152587890625,0.0001527161948615685,-0.0001527161948615685,0.0001527161948615685
1775033823199006500,22.11300634765625,-0.0001527161948615685,0.000305432389723137,0
1775033823250487300,22.1644873046875,0.0001527161948615685,0.0001527161948615685,-0.0001527161948615685
1775033823301968000,22.2159677734375,-0.0001527161948615685,0.0001527161948615685,-0.00045814859913662076
1775033823353448400,22.267448486328124,0.00045814859913662076,0,0.0001527161948615685
1775033823404929300,22.31892919921875,-0.0001527161948615685,0.0001527161948615685,0.0001527161948615685
1775033823456409900,22.370409912109373,0.0001527161948615685,-0.0001527161948615685,0
1775033823507890400,22.421890380859374,0.000305432389723137,0.0001527161948615685,-0.000305432389723137
1775033823559371300,22.473371337890626,-0.0001527161948615685,0.000305432389723137,-0.0001527161948615685
1775033823610851800,22.524851806640626,0,-0.0001527161948615685,0
1775033823662332700,22.576332763671875,-0.0001527161948615685,-0.0001527161948615685,-0.0001527161948615685
1775033823713813200,22.627813232421875,0.0001527161948615685,-0.0007635809597559273,-0.000305432389723137
1775033823765293800,22.6792939453125,-0.0001527161948615685,-0.0001527161948615685,0.0001527161948615685
1775033823816774700,22.730774658203124,0,-0.0001527161948615685,-0.00045814859913662076
1775033823868255200,22.782255126953125,0,0.0001527161948615685,0.000305432389723137
1775033823919735800,22.83373583984375,0.0001527161948615685,-0.0001527161948615685,0
1775033823971216600,22.885216552734374,0.0001527161948615685,-0.00045814859913662076,0.0001527161948615685
1775033824022697200,22.936697265625,0,-0.0001527161948615685,-0.0001527161948615685
1775033824074178000,22.988177978515626,0.0001527161948615685,0.0001527161948615685,-0.0001527161948615685
1775033824125658600,23.03965869140625,0.0001527161948615685,-0.0001527161948615685,0.0001527161948615685
1775033824177139200,23.09113916015625,-0.0001527161948615685,0.0001527161948615685,-0.00045814859913662076
1775033824228620000,23.1426201171875,0,0,0
1775033824280100600,23.1941005859375,0.0001527161948615685,-0.0001527161948615685,0.0001527161948615685
1775033824331581200,23.245581298828125,0.0001527161948615685,0.0001527161948615685,0.0001527161948615685
1775033824383062000,23.29706201171875,0.0001527161948615685,0.0001527161948615685,0.0001527161948615685
1775033824434542600,23.34854248046875,0,0,-0.000305432389723137
1775033824486023200,23.400023193359374,-0.0001527161948615685,-0.00045814859913662076,0.0001527161948615685
1775033824537504000,23.45150390625,0.0001527161948615685,0.000305432389723137,-0.0001527161948615685
1775033824588984600,23.502984619140626,0,0,-0.0001527161948615685
1775033824640465200,23.554465087890627,-0.0001527161948615685,0.0001527161948615685,-0.000305432389723137
1775033824691946000,23.605946044921875,-0.0001527161948615685,-0.0001527161948615685,-0.0001527161948615685
1775033824743426600,23.657426513671876,0,0.00045814859913662076,-0.000305432389723137
1775033824794907100,23.7089072265625,0.0001527161948615685,-0.0001527161948615685,-0.0007635809597559273
1775033824846387700,23.7603876953125,0.0001527161948615685,0.0001527161948615685,0
1775033824897868500,23.81186865234375,0.0001527161948615685,0.0001527161948615685,0
1775033824949349000,23.86334912109375,0,-0.0001527161948615685,0.0001527161948615685
1775033825000829700,23.91482958984375,0.0001527161948615685,0,-0.0001527161948615685
1775033825052310500,23.966310546875,0.0001527161948615685,0,0.0001527161948615685
1775033825103791000,24.017791015625,0.0001527161948615685,-0.00045814859913662076,-0.0001527161948615685
1775033825155271700,24.069271728515623,0.0001527161948615685,-0.0001527161948615685,-0.0001527161948615685
1775033825206752500,24.12075244140625,-0.0001527161948615685,-0.0007635809597559273,0
1775033825258233000,24.172233154296876,0,-0.0001527161948615685,0.0001527161948615685
1775033825309713700,24.223713623046876,0.0001527161948615685,0,-0.00045814859913662076
1775033825361194500,24.275194580078125,0.0001527161948615685,-0.0001527161948615685,-0.00045814859913662076
1775033825412675000,24.326675048828125,-0.0001527161948615685,0.0001527161948615685,0.000305432389723137
1775033825464155600,24.37815576171875,-0.0001527161948615685,-0.00045814859913662076,0.0001527161948615685
1775033825515636500,24.429636474609374,0,0,-0.0001527161948615685
1775033825567117000,24.481116943359375,-0.0001527161948615685,-0.0001527161948615685,-0.0001527161948615685
1775033825618597600,24.53259765625,-0.0001527161948615685,0.0001527161948615685,-0.0001527161948615685
1775033825670078500,24.584078369140624,0,-0.0001527161948615685,-0.000305432389723137
1775033825721559000,24.63555908203125,-0.0001527161948615685,0,0.0001527161948615685
1775033825773039600,24.68703955078125,-0.0001527161948615685,-0.00045814859913662076,0
1775033825824520400,24.7385205078125,0,0,-0.0001527161948615685
1775033825876001000,24.7900009765625,-0.0001527161948615685,-0.0001527161948615685,0
1775033825927481600,24.841481689453126,0.000305432389723137,-0.0001527161948615685,0.0001527161948615685
1775033825978962200,24.892962158203126,-0.0001527161948615685,-0.000305432389723137,0.0001527161948615685
1775033826030443000,24.944443115234375,0,-0.0001527161948615685,0
1775033826081923600,24.995923583984375,-0.0001527161948615685,0.00045814859913662076,-0.000305432389723137
1775033826133404200,25.047404052734375,-0.0001527161948615685,0,-0.0001527161948615685
1775033826184885000,25.098885009765624,0,0.0001527161948615685,-0.0001527161948615685
1775033826236365600,25.150365478515624,-0.000305432389723137,0,0
1775033826287846100,25.20184619140625,0,-0.0001527161948615685,0
1775033826339326700,25.25332666015625,0.000305432389723137,0.0001527161948615685,0.0001527161948615685
1775033826390807300,25.304807373046874,-0.0001527161948615685,-0.0001527161948615685,-0.0001527161948615685
1775033826442288000,25.3562880859375,0.0001527161948615685,0,-0.0001527161948615685
1775033826493768700,25.407768798828126,0.0001527161948615685,0,-0.0001527161948615685
1775033826545249300,25.459249267578127,0.0001527161948615685,0.0001527161948615685,0.00045814859913662076
1775033826596730000,25.510730224609375,0.0001527161948615685,-0.0001527161948615685,0
1775033826648210700,25.562210693359376,0,0.000305432389723137,0.0001527161948615685
1775033826699691300,25.613691162109376,0,-0.0001527161948615685,-0.0001527161948615685
1775033826751171800,25.665171875,0.000305432389723137,-0.0001527161948615685,-0.0001527161948615685
1775033826802652700,25.716652587890625,0,-0.000305432389723137,0.000305432389723137
1775033826854133200,25.76813330078125,-0.0001527161948615685,-0.000305432389723137,0
1775033826905613800,25.81961376953125,0,0.0001527161948615685,0.0001527161948615685
1775033826957094400,25.871094482421874,0.0001527161948615685,-0.0001527161948615685,-0.0001527161948615685
1775033827008575200,25.9225751953125,-0.0001527161948615685,-0.000305432389723137,-0.0001527161948615685
1775033827060055800,25.974055908203123,0.0001527161948615685,0,0.0001527161948615685
1775033827111536400,26.025536376953124,0.00045814859913662076,-0.0001527161948615685,-0.0001527161948615685
1775033827163017000,26.077016845703124,-0.0001527161948615685,0,-0.0001527161948615685
1775033827214497800,26.128497802734376,-0.0001527161948615685,-0.000305432389723137,0.00045814859913662076
1775033827265978400,26.179978271484377,0.0001527161948615685,-0.000305432389723137,0.0001527161948615685
1775033827317459000,26.231458984375,0.0001527161948615685,0.0001527161948615685,0
1775033827368939500,26.282939453125,-0.0001527161948615685,-0.0001527161948615685,0.0001527161948615685
1775033827420420400,26.33442041015625,-0.0001527161948615685,-0.0001527161948615685,-0.000305432389723137
1775033827471901000,26.38590087890625,-0.0001527161948615685,-0.0001527161948615685,0.0001527161948615685
1775033827523381500,26.437381591796875,0,0.0001527161948615685,-0.0001527161948615685
1775033827574862000,26.488862060546875,0,0.000305432389723137,-0.0001527161948615685
1775033827626342700,26.5403427734375,0.0001527161948615685,0.0001527161948615685,-0.000305432389723137
1775033827677823500,26.591823486328124,0,-0.00045814859913662076,-0.0001527161948615685
1775033827729304000,26.643303955078125,0.0001527161948615685,0.0001527161948615685,-0.0001527161948615685
1775033827780784600,26.69478466796875,-0.0001527161948615685,-0.00045814859913662076,0.0001527161948615685
1775033827832265200,26.74626513671875,-0.0001527161948615685,-0.000305432389723137,0.0001527161948615685
1775033827883745800,26.797745849609374,0,0.0001527161948615685,0.0001527161948615685
1775033827935226600,26.8492265625,0,-0.000305432389723137,0.0001527161948615685
1775033827986707200,26.900707275390626,0.0001527161948615685,-0.0001527161948615685,0.00045814859913662076
1775033828038187800,26.952187744140623,0.0001527161948615685,-0.00045814859913662076,0.0001527161948615685
1775033828089668400,27.00366845703125,0.0001527161948615685,-0.0001527161948615685,0.0009162971982732415
1775033828141149200,27.055149169921876,0,-0.0001527161948615685,-0.0001527161948615685
1775033828192629800,27.106629638671876,0.0001527161948615685,0.0001527161948615685,0
1775033828244110300,27.1581103515625,0.000305432389723137,-0.000305432389723137,0.0001527161948615685
1775033828295591000,27.2095908203125,0.0001527161948615685,0.0001527161948615685,0.0001527161948615685
1775033828347071700,27.26107177734375,-0.0001527161948615685,0,0.0001527161948615685
1775033828398552300,27.31255224609375,-0.0001527161948615685,0,0.0001527161948615685
1775033828450033000,27.364032958984374,-0.0001527161948615685,-0.0001527161948615685,-0.0001527161948615685
1775033828501513500,27.415513427734375,-0.0001527161948615685,-0.0001527161948615685,0.0001527161948615685
1775033828552994000,27.466994140625,0,0.000610864779446274,-0.0007635809597559273
1775033828604475000,27.518474853515624,0.0001527161948615685,-0.000305432389723137,0.0001527161948615685
1775033828655955500,27.56995556640625,0,0,0.0001527161948615685
1775033828707436000,27.62143603515625,0.000305432389723137,-0.00045814859913662076,0
1775033828758916600,27.67291650390625,0,-0.000610864779446274,0
1775033828810397400,27.7243974609375,0,-0.000610864779446274,-0.00045814859913662076
1775033828861878000,27.7758779296875,-0.00045814859913662076,-0.0001527161948615685,0.0001527161948615685
1775033828913358600,27.827358642578126,0.0001527161948615685,-0.0007635809597559273,-0.0001527161948615685
1775033828964839200,27.878839111328126,0.0001527161948615685,0.0001527161948615685,-0.0001527161948615685
1775033829016319700,27.93031982421875,0.0001527161948615685,0.0001527161948615685,0.000305432389723137
1775033829067800300,27.98180029296875,-0.0001527161948615685,0,0
1775033829119281200,28.03328125,0.0001527161948615685,-0.0007635809597559273,0.000305432389723137
1775033829170761700,28.08476171875,0,-0.0001527161948615685,0
1775033829222242300,28.1362421875,0.0001527161948615685,-0.0010690133785828948,0.0001527161948615685
1775033829273723000,28.187722900390625,-0.000305432389723137,-0.0007635809597559273,0.0001527161948615685
1775033829325203500,28.239203369140625,0.000305432389723137,0.00045814859913662076,0
1775033829376684300,28.290684326171874,0.000305432389723137,-0.0001527161948615685,0.0001527161948615685
1775033829428164900,28.342164794921874,0.0001527161948615685,-0.0007635809597559273,0.0001527161948615685
1775033829479645400,28.3936455078125,0,-0.001832594396546483,0.000610864779446274
1775033829531126000,28.4451259765625,-0.0001527161948615685,-0.001679878099821508,0.00045814859913662076
1775033829582606800,28.49660693359375,-0.000305432389723137,-0.001221729558892548,0
1775033829634087400,28.54808740234375,0.0001527161948615685,-0.0001527161948615685,0
1775033829685568000,28.599568115234376,0,0.00045814859913662076,-0.0001527161948615685
1775033829737048600,28.651048583984377,-0.000305432389723137,0.00045814859913662076,0.0001527161948615685
1775033829788529200,28.702529052734373,-0.0001527161948615685,0.001221729558892548,-0.00045814859913662076
1775033829840010000,28.754010009765626,0,0.001221729558892548,-0.00045814859913662076
1775033829891490600,28.805490478515626,-0.000305432389723137,0.0010690133785828948,-0.0001527161948615685
1775033829942971100,28.85697119140625,0,0.000610864779446274,0
1775033829994451700,28.90845166015625,-0.0001527161948615685,-0.000305432389723137,0.0001527161948615685
1775033830045932500,28.9599326171875,0.00045814859913662076,0.0001527161948615685,-0.00045814859913662076
1775033830097413000,29.0114130859375,0,0.00045814859913662076,0.000305432389723137
1775033830148893700,29.062893798828124,0.0001527161948615685,0.0001527161948615685,-0.00045814859913662076
1775033830200374300,29.114374267578125,-0.0001527161948615685,-0.0001527161948615685,-0.0001527161948615685
1775033830251854800,29.165854736328125,0.0001527161948615685,0.0001527161948615685,-0.000305432389723137
1775033830303335400,29.21733544921875,-0.0001527161948615685,0.000305432389723137,-0.0001527161948615685
1775033830354816300,29.268816162109374,-0.0001527161948615685,0.0001527161948615685,0
1775033830406296800,29.320296875,0.0001527161948615685,-0.0001527161948615685,-0.000305432389723137
1775033830457777400,29.37177734375,-0.0001527161948615685,0.0001527161948615685,0
1775033830509258000,29.423258056640623,0,-0.00045814859913662076,0
1775033830560738600,29.474738525390624,-0.000305432389723137,-0.00045814859913662076,0.00045814859913662076
1775033830612219400,29.526219482421876,0,0.00045814859913662076,0.0001527161948615685
1775033830663700000,29.577699951171876,0,0.000305432389723137,-0.0001527161948615685
1775033830715180500,29.6291806640625,0,0,0
1775033830766661000,29.6806611328125,0,0.000610864779446274,0.0001527161948615685
1775033830818141700,29.7321416015625,0.0001527161948615685,0.0001527161948615685,-0.0001527161948615685
1775033830869622300,29.783622314453126,0.0001527161948615685,0.00045814859913662076,0.0001527161948615685
1775033830921103000,29.83510302734375,0,-0.0001527161948615685,-0.0001527161948615685
1775033830972583700,29.886583740234375,0,0.0001527161948615685,-0.00045814859913662076
1775033831024064300,29.938064208984375,-0.000305432389723137,0.0007635809597559273,0
1775033831075544800,29.989544921875,0,-0.0001527161948615685,-0.0001527161948615685
1775033831127025400,30.041025390625,0.0001527161948615685,-0.0001527161948615685,-0.0001527161948615685
1775033831178506200,30.09250634765625,0.00045814859913662076,0,-0.0001527161948615685
1775033831229986800,30.14398681640625,0.0001527161948615685,0.00045814859913662076,-0.0001527161948615685
1775033831281467400,30.19546728515625,-0.0001527161948615685,-0.0001527161948615685,-0.000305432389723137
1775033831332948000,30.246947998046874,0,-0.00045814859913662076,0.0001527161948615685
1775033831384428500,30.298428466796874,0,0.000305432389723137,-0.0001527161948615685
1775033831435909000,30.3499091796875,0.000305432389723137,-0.0001527161948615685,0
1775033831487389700,30.4013896484375,0.000305432389723137,-0.0001527161948615685,0
1775033831538870300,30.452870361328124,0.0001527161948615685,0,0
1775033831590351000,30.50435107421875,-0.000305432389723137,0.0001527161948615685,-0.00045814859913662076
1775033831641831700,30.555831787109376,-0.0001527161948615685,-0.00045814859913662076,0.00045814859913662076
1775033831693312300,30.607312255859377,-0.0001527161948615685,0.00045814859913662076,0.00045814859913662076
1775033831744792800,30.658792724609373,-0.0001527161948615685,0.00045814859913662076,-0.000305432389723137
1775033831796273400,30.7102734375,0,0,0
1775033831847754200,30.761754150390626,0.0001527161948615685,0,-0.000305432389723137
1775033831899234800,30.81323486328125,0.0001527161948615685,0.000305432389723137,-0.00045814859913662076
1775033831950715400,30.86471533203125,0,0.0001527161948615685,-0.000305432389723137
1775033832002196000,30.916196044921875,-0.000305432389723137,-0.0001527161948615685,0.0001527161948615685
1775033832053676500,30.967676513671876,0,0,-0.000305432389723137
1775033832105157000,31.0191572265625,0.0001527161948615685,0.000305432389723137,0.0001527161948615685
1775033832156637700,31.0706376953125,0.0001527161948615685,0.0001527161948615685,0.00045814859913662076
1775033832208118500,31.122118408203125,0.0001527161948615685,0,-0.00045814859913662076
1775033832259599000,31.17359912109375,0.000305432389723137,0,-0.0001527161948615685
1775033832311079700,31.22507958984375,-0.0001527161948615685,-0.00045814859913662076,0.0001527161948615685
1775033832362560300,31.276560302734374,0,-0.000305432389723137,-0.000305432389723137
1775033832414040800,31.328040771484375,0,-0.000305432389723137,0.0001527161948615685
1775033832465521400,31.379521484375,-0.0001527161948615685,0,0
1775033832517002000,31.431001953125,0,-0.0001527161948615685,0.0001527161948615685
1775033832568482600,31.482482666015624,0.000305432389723137,-0.000305432389723137,0.0001527161948615685
1775033832619963400,31.53396337890625,0.0001527161948615685,-0.0001527161948615685,0.0001527161948615685
1775033832671444000,31.58544384765625,0.000305432389723137,-0.000305432389723137,0.0001527161948615685
1775033832722924500,31.636924560546873,0.0001527161948615685,0.000305432389723137,-0.0001527161948615685
1775033832774405000,31.688405029296874,0.0001527161948615685,0,0
1775033832825885700,31.7398857421875,-0.0001527161948615685,-0.0001527161948615685,-0.0001527161948615685
1775033832877366300,31.7913662109375,0,-0.0007635809597559273,0.000305432389723137
1775033832928846800,31.842846923828127,-0.0001527161948615685,0.000305432389723137,-0.0001527161948615685
1775033832980327400,31.894327392578123,0.000305432389723137,0.0001527161948615685,0.0001527161948615685
1775033833031808300,31.945808349609376,0.0001527161948615685,-0.00045814859913662076,0
1775033833083288800,31.997288818359376,-0.000305432389723137,0,0
1775033833134769400,32.04876928710937,-0.0001527161948615685,0.0001527161948615685,0.0001527161948615685
1775033833186250000,32.10025,0.0001527161948615685,0.0001527161948615685,0.000610864779446274
1775033833237730600,32.15173046875,-0.00045814859913662076,-0.00045814859913662076,0.0001527161948615685
1775033833289211100,32.203211181640626,-0.0001527161948615685,-0.00045814859913662076,-0.0001527161948615685
1775033833340691700,32.254691650390626,0.0001527161948615685,-0.0001527161948615685,0.0001527161948615685
1775033833392172300,32.30617236328125,-0.0001527161948615685,0.0001527161948615685,-0.0001527161948615685
1775033833443653000,32.35765307617187,-0.0001527161948615685,0.0001527161948615685,0.0001527161948615685
1775033833495133400,32.40913354492187,-0.0001527161948615685,-0.000305432389723137,0.00045814859913662076
1775033833546614300,32.4606142578125,0,0,0.0001527161948615685
1775033833598094800,32.5120947265625,-0.000305432389723137,-0.0001527161948615685,0.00045814859913662076
1775033833649575400,32.563575439453125,0.0001527161948615685,-0.000305432389723137,-0.00045814859913662076
1775033833701056000,32.615055908203125,0.00045814859913662076,-0.0001527161948615685,0.0001527161948615685
1775033833752536600,32.66653662109375,0.0001527161948615685,-0.0001527161948615685,-0.0001527161948615685
1775033833804017200,32.71801708984375,0.0001527161948615685,-0.0001527161948615685,-0.00045814859913662076
1775033833855497700,32.76949780273438,0.000610864779446274,0.0001527161948615685,0.0001527161948615685
1775033833906978300,32.82097827148438,-0.0001527161948615685,-0.0001527161948615685,0.0001527161948615685
1775033833958459100,32.87245922851562,0.0001527161948615685,0,0
1775033834009939700,32.923939697265624,-0.0001527161948615685,-0.0001527161948615685,-0.00045814859913662076
1775033834061420300,32.975420166015624,0.0001527161948615685,-0.0001527161948615685,0.0001527161948615685
1775033834112900900,33.02690087890625,0.0001527161948615685,-0.000305432389723137,-0.00045814859913662076
1775033834164381400,33.07838134765625,0.0001527161948615685,-0.000305432389723137,-0.0001527161948615685
1775033834215862000,33.12986206054688,0.0001527161948615685,-0.000305432389723137,-0.0001527161948615685
1775033834267342600,33.18134252929688,-0.0001527161948615685,0,-0.00045814859913662076
1775033834318823200,33.2328232421875,0.0001527161948615685,-0.0001527161948615685,0.0001527161948615685
1775033834370303700,33.2843037109375,0,0.000305432389723137,-0.000610864779446274
1775033834421784300,33.33578442382812,0,0,0
1775033834473265200,33.38726513671875,0,0,-0.000305432389723137
1775033834524745700,33.438745849609376,-0.0001527161948615685,-0.0001527161948615685,-0.000305432389723137
1775033834576226300,33.490226318359376,0.0001527161948615685,0,-0.0001527161948615685
1775033834627707000,33.541706787109376,0.0001527161948615685,-0.0001527161948615685,-0.00045814859913662076
1775033834679187500,33.5931875,-0.0001527161948615685,-0.0001527161948615685,-0.0001527161948615685
1775033834730668000,33.64466796875,-0.0001527161948615685,-0.00045814859913662076,0.0001527161948615685
1775033834782148600,33.69614868164062,0.0001527161948615685,-0.000610864779446274,-0.0001527161948615685
1775033834833629200,33.74762915039062,0.0001527161948615685,-0.0001527161948615685,-0.00045814859913662076
1775033834885109800,33.79910986328125,-0.0001527161948615685,0.0001527161948615685,0.000305432389723137
1775033834936590300,33.85059033203125,0.0001527161948615685,-0.0001527161948615685,-0.000305432389723137
1775033834988071000,33.90207080078125,-0.0001527161948615685,0.0001527161948615685,-0.0001527161948615685
1775033835039551500,33.953551513671876,0,0.0001527161948615685,-0.000305432389723137
1775033835091032300,34.0050322265625,0,-0.00045814859913662076,0
1775033835142513000,34.05651293945313,-0.0001527161948615685,0,0
1775033835193993500,34.10799340820312,0.0001527161948615685,-0.0001527161948615685,-0.0001527161948615685
1775033835245474000,34.15947412109375,0.000305432389723137,0,-0.000305432389723137
1775033835296954600,34.21095458984375,-0.0001527161948615685,-0.0001527161948615685,0
1775033835348435200,34.262435302734374,0.0001527161948615685,-0.00045814859913662076,0
1775033835399915800,34.313915771484375,0,-0.000305432389723137,0
1775033835451396400,34.365396240234375,-0.0001527161948615685,-0.00045814859913662076,0.0001527161948615685
1775033835502877000,34.416876953125,0.0001527161948615685,0.0001527161948615685,-0.000305432389723137
1775033835554357500,34.468357421875,-0.0001527161948615685,0.0001527161948615685,-0.000305432389723137
1775033835605838000,34.51983813476563,0.0001527161948615685,0,-0.00045814859913662076
1775033835657318700,34.57131860351563,0.0001527161948615685,-0.000305432389723137,-0.0001527161948615685
1775033835708799500,34.62279956054687,0,-0.00045814859913662076,-0.0001527161948615685
1775033835760280000,34.674280029296874,-0.0001527161948615685,-0.0001527161948615685,0.000305432389723137
1775033835811760600,34.7257607421875,-0.0001527161948615685,-0.000305432389723137,-0.0001527161948615685
1775033835863241200,34.7772412109375,0,0,-0.0001527161948615685
1775033835914721800,34.8287216796875,0,0.0001527161948615685,-0.0001527161948615685
1775033835966202400,34.88020239257813,0,0.0001527161948615685,-0.00045814859913662076
1775033836017683000,34.93168286132813,0.0001527161948615685,0.00045814859913662076,0.0001527161948615685
1775033836069163500,34.98316357421875,0.000305432389723137,-0.000305432389723137,0.0001527161948615685
1775033836120644000,35.03464404296875,0.0001527161948615685,-0.000610864779446274,-0.00045814859913662076
1775033836172124700,35.08612475585937,0.00045814859913662076,0.0001527161948615685,-0.000610864779446274
1775033836223605200,35.13760522460937,-0.0001527161948615685,0.0001527161948615685,0.0001527161948615685
1775033836275086000,35.189086181640626,0.0001527161948615685,-0.00045814859913662076,0
1775033836326566700,35.240566650390626,0.0001527161948615685,-0.0001527161948615685,0.0001527161948615685
1775033836378047200,35.292047119140626,-0.0001527161948615685,0.000305432389723137,0
1775033836429527800,35.34352783203125,-0.0001527161948615685,-0.000610864779446274,-0.0001527161948615685
1775033836481008400,35.39500830078125,-0.0001527161948615685,-0.000305432389723137,-0.00045814859913662076
1775033836532489000,35.44648901367187,0.0001527161948615685,-0.0001527161948615685,0.0001527161948615685
1775033836583969500,35.49796948242187,0.0001527161948615685,-0.00045814859913662076,0
1775033836635450000,35.5494501953125,0,-0.0001527161948615685,0.000305432389723137
1775033836686930700,35.6009306640625,0.0001527161948615685,-0.00045814859913662076,0
1775033836738411300,35.652411376953125,0.00045814859913662076,0.0001527161948615685,-0.00045814859913662076
1775033836789891800,35.703891845703126,0.0001527161948615685,0.000305432389723137,-0.000305432389723137
1775033836841372400,35.755372314453126,0,-0.0001527161948615685,0
1775033836892853000,35.80685302734375,-0.0001527161948615685,-0.00045814859913662076,-0.0001527161948615685
1775033836944333600,35.85833349609375,0.00045814859913662076,-0.000305432389723137,0
1775033836995814100,35.90981420898437,0.0001527161948615685,0.0001527161948615685,0
1775033837047295000,35.961294921875,-0.0001527161948615685,0.0001527161948615685,-0.0001527161948615685
1775033837098775600,36.012775634765624,0,-0.0001527161948615685,-0.0001527161948615685
1775033837150256000,36.064256103515625,-0.000305432389723137,-0.0001527161948615685,-0.00045814859913662076
1775033837201736700,36.11573681640625,0.0001527161948615685,0.000305432389723137,0.0001527161948615685
1775033837253217300,36.16721728515625,0.0001527161948615685,-0.000305432389723137,0
1775033837304697900,36.21869775390625,-0.000305432389723137,0.0001527161948615685,0.00045814859913662076
1775033837356178400,36.27017846679688,-0.0001527161948615685,-0.000305432389723137,0.0001527161948615685
1775033837407659000,36.32165893554688,0.00045814859913662076,-0.00045814859913662076,0
1775033837459139600,36.3731396484375,0.0001527161948615685,0.00045814859913662076,-0.000305432389723137
1775033837510620200,36.4246201171875,-0.000305432389723137,-0.0001527161948615685,0.0001527161948615685
1775033837562100700,36.476100830078124,0.0001527161948615685,-0.0001527161948615685,-0.0001527161948615685
1775033837613581300,36.527581298828125,0,0,-0.0001527161948615685
1775033837665062000,36.579061767578125,0,-0.000305432389723137,0
1775033837716542500,36.63054248046875,-0.0001527161948615685,0,-0.000305432389723137
1775033837768023000,36.68202294921875,0.0001527161948615685,-0.0001527161948615685,-0.0001527161948615685
1775033837819503600,36.73350366210938,-0.000305432389723137,0.0001527161948615685,0.0001527161948615685
1775033837870984200,36.78498413085938,0.0001527161948615685,0,-0.0001527161948615685
1775033837922464800,36.83646484375,0.0001527161948615685,-0.0001527161948615685,0.0001527161948615685
1775033837973945300,36.8879453125,-0.0001527161948615685,0.0001527161948615685,-0.0001527161948615685
1775033838025426000,36.939426025390624,0.0001527161948615685,0,0
1775033838076906500,36.990906494140624,0.000305432389723137,0.000305432389723137,-0.0001527161948615685
1775033838128387000,37.042386962890625,-0.0001527161948615685,0.0001527161948615685,0.000305432389723137
1775033838179868000,37.09386791992188,0.0001527161948615685,0.000305432389723137,-0.0001527161948615685
1775033838231348500,37.14534838867188,0.0001527161948615685,0.0001527161948615685,-0.0001527161948615685
1775033838282829000,37.1968291015625,0.00045814859913662076,0,-0.0001527161948615685
1775033838334309400,37.24830932617188,0,-0.000305432389723137,-0.0001527161948615685
1775033838385790000,37.2997900390625,0,-0.0001527161948615685,0.0001527161948615685
1775033838437270500,37.3512705078125,0.0001527161948615685,-0.0001527161948615685,0.000305432389723137
1775033838488751400,37.40275146484375,0.0001527161948615685,0.0001527161948615685,0.0001527161948615685
1775033838540232000,37.45423193359375,0.0001527161948615685,-0.0001527161948615685,-0.000305432389723137
1775033838591712500,37.50571240234375,0.0001527161948615685,-0.0001527161948615685,0.0001527161948615685
1775033838643193000,37.55719311523438,0.00045814859913662076,-0.0001527161948615685,0
1775033838694673700,37.60867358398438,0.0001527161948615685,0.00045814859913662076,-0.0001527161948615685
1775033838746154200,37.660154296875,0.0001527161948615685,0.000610864779446274,-0.0001527161948615685
1775033838797634800,37.711634765625,-0.0001527161948615685,-0.0001527161948615685,-0.000305432389723137
1775033838849115400,37.76311547851562,-0.0001527161948615685,0,0
1775033838900596000,37.81459594726562,0,-0.0001527161948615685,0.0001527161948615685
1775033838952076500,37.86607666015625,0.000305432389723137,-0.0001527161948615685,0.00045814859913662076
1775033839003557000,37.91755712890625,0.000305432389723137,-0.00045814859913662076,0.0001527161948615685
1775033839055037700,37.96903759765625,-0.000305432389723137,-0.0001527161948615685,-0.0001527161948615685
1775033839106518300,38.020518310546876,0.0001527161948615685,0,0.0001527161948615685
1775033839157998800,38.07199877929688,0.0001527161948615685,-0.000305432389723137,0.000305432389723137
1775033839209479400,38.1234794921875,0.0001527161948615685,0.0001527161948615685,0.00045814859913662076
1775033839260960000,38.1749599609375,-0.00045814859913662076,0.0001527161948615685,-0.0001527161948615685
1775033839312440600,38.22644067382812,0,-0.0001527161948615685,-0.000305432389723137
1775033839363921200,38.27792114257812,-0.0001527161948615685,0.0001527161948615685,-0.0001527161948615685
1775033839415401700,38.32940161132812,0.00045814859913662076,0.000305432389723137,0
1775033839466882300,38.38088232421875,0.000305432389723137,-0.0001527161948615685,-0.00045814859913662076
1775033839518363000,38.43236279296875,0.0001527161948615685,-0.0001527161948615685,0.0001527161948615685
1775033839569843500,38.483843505859376,-0.0001527161948615685,-0.000305432389723137,0.0007635809597559273
1775033839621324000,38.535323974609376,0,0.000305432389723137,0
1775033839672804600,38.5868046875,0.0001527161948615685,-0.000305432389723137,-0.000305432389723137
1775033839724285200,38.63828515625,0,-0.00045814859913662076,-0.00045814859913662076
1775033839775765800,38.68976586914062,-0.0001527161948615685,-0.0001527161948615685,0.000305432389723137
1775033839827246300,38.74124633789062,-0.0001527161948615685,-0.0001527161948615685,0.0001527161948615685
1775033839878727000,38.79272680664062,0,-0.00045814859913662076,-0.000305432389723137
1775033839930207500,38.84420751953125,0.0001527161948615685,-0.0001527161948615685,0.0001527161948615685
1775033839981688000,38.89568798828125,0,-0.0001527161948615685,0.0001527161948615685
1775033840033168600,38.947168701171876,0.0001527161948615685,0.00045814859913662076,0.00045814859913662076
1775033840084649200,38.998649169921876,0,-0.0001527161948615685,-0.0001527161948615685
1775033840136129800,39.0501298828125,0.0001527161948615685,-0.0001527161948615685,0.0001527161948615685
1775033840187610400,39.1016103515625,0.0001527161948615685,-0.0001527161948615685,-0.0001527161948615685
1775033840239091000,39.15309106445312,0,-0.0001527161948615685,0.0001527161948615685
1775033840290571500,39.20457153320312,0,-0.0001527161948615685,-0.000305432389723137
1775033840342052000,39.25605200195312,-0.0001527161948615685,-0.000305432389723137,0
1775033840393532700,39.30753271484375,-0.0001527161948615685,-0.000305432389723137,-0.0001527161948615685
1775033840445013200,39.35901318359375,-0.0001527161948615685,-0.000305432389723137,-0.00045814859913662076
1775033840496493800,39.410493896484375,-0.0001527161948615685,0.000305432389723137,0
1775033840547974400,39.461974365234376,0.0001527161948615685,-0.00045814859913662076,0
1775033840599455000,39.513455078125,0.000305432389723137,-0.000305432389723137,0.00045814859913662076
1775033840650935600,39.564935546875,-0.0001527161948615685,-0.00045814859913662076,0
1775033840702416100,39.616416015625,0,0.000305432389723137,-0.000610864779446274
1775033840753896700,39.66789672851562,0.0001527161948615685,0.0001527161948615685,-0.0001527161948615685
1775033840805377300,39.71937719726562,0.0001527161948615685,0,0
1775033840856857900,39.77085791015625,0.0001527161948615685,-0.0001527161948615685,0.000305432389723137
1775033840908338400,39.82233837890625,0.0001527161948615685,-0.00045814859913662076,0.000305432389723137
1775033840959819000,39.873819091796875,-0.0001527161948615685,-0.0001527161948615685,0.0001527161948615685
1775033841011299600,39.925299560546875,0,-0.0001527161948615685,0.0001527161948615685
1775033841062780200,39.9767802734375,0.0001527161948615685,0.0001527161948615685,0.0001527161948615685
1775033841114260700,40.0282607421875,0.0001527161948615685,-0.0001527161948615685,0
1775033841165741300,40.0797412109375,0.0001527161948615685,-0.0001527161948615685,0
1775033841217222000,40.13122192382812,-0.0001527161948615685,-0.000305432389723137,0.0001527161948615685
1775033841268702500,40.18270239257812,0.0001527161948615685,-0.00045814859913662076,-0.0001527161948615685
1775033841320183000,40.23418310546875,-0.0001527161948615685,0,0.0001527161948615685
1775033841371663600,40.28566357421875,0.0001527161948615685,-0.0001527161948615685,0.000305432389723137
1775033841423144200,40.337144287109375,0,-0.0001527161948615685,-0.0001527161948615685
1775033841474624800,40.388624755859375,0,-0.0001527161948615685,-0.0001527161948615685
1775033841526105300,40.440105224609376,0.0001527161948615685,0,0
1775033841577586000,40.4915859375,0,0,0
1775033841629066500,40.54306640625,0,-0.000305432389723137,-0.0001527161948615685
1775033841680547000,40.59454711914063,-0.0001527161948615685,-0.000305432389723137,-0.00045814859913662076
1775033841732027600,40.64602758789062,-0.0001527161948615685,-0.000305432389723137,0
1775033841783508200,40.69750830078125,0,-0.000305432389723137,0
1775033841834988500,40.74898852539062,0,0.0001527161948615685,-0.0001527161948615685
1775033841886469000,40.80046923828125,0.0001527161948615685,0.0001527161948615685,-0.00045814859913662076
1775033841937949700,40.85194970703125,-0.0001527161948615685,0.0001527161948615685,-0.0001527161948615685
1775033841989430300,40.90343017578125,-0.0019853105768561363,0.06734783947467804,0.03741546720266342
1775033842040910800,40.954910888671876,-0.005650499369949102,0.1568395346403122,0.0847574844956398
