time,seconds_elapsed,z,y,x
1775033801161092900,0.0750927734375,11.564512252807617,-0.24646073579788208,0.4953143000602722
1775033801255474400,0.169474365234375,11.270195007324219,-0.1866401731967926,0.38763725757598877
1775033801306955300,0.220955322265625,8.623732566833496,0.15553347766399384,-0.27756741642951965
1775033801358436000,0.27243603515625,10.415956497192383,-0.014356935396790504,0.17946170270442963
1775033801409917000,0.3239169921875,10.738987922668457,-0.07417750358581543,0.2392822653055191
1775033801461397800,0.375397705078125,9.09990406036377,0.11006984114646912,-0.16271193325519562
1775033801512878800,0.42687890625,9.19561767578125,0.08853443711996078,-0.16271193325519562
1775033801564359700,0.478359619140625,9.547362327575684,0.05503492057323456,-0.02632104977965355
1775033801615840500,0.529840576171875,9.848857879638672,0.02871387079358101,0.04785645380616188
1775033801667321300,0.5813212890625,9.879964828491211,0.02632104977965355,0.038285162299871445
1775033801718802200,0.63280224609375,9.865608215332031,0.038285162299871445,0.04546362906694412
1775033801770283000,0.684282958984375,9.875179290771484,0.02392822690308094,0.035892341285943985
1775033801821763800,0.735763916015625,9.865608215332031,0.016749758273363113,0.02392822690308094
1775033801873244700,0.78724462890625,9.868000984191895,0.019142581149935722,0.02392822690308094
1775033801924725500,0.8387255859375,9.863214492797852,0.019142581149935722,0.035892341285943985
1775033801976206300,0.890206298828125,9.882357597351074,0.02392822690308094,0.0526420995593071
1775033802027687200,0.941687255859375,9.846465110778809,0.04546362906694412,0.04546362906694412
1775033802079168300,0.993168212890625,9.858428955078125,0.035892341285943985,0.03349951654672623
1775033802130649000,1.044649169921875,9.860821723937988,0.02871387079358101,0.04307080805301666
1775033802182130000,1.0961298828125,9.875179290771484,0.02392822690308094,0.04546362906694412
1775033802233610800,1.14761083984375,9.868000984191895,0.02392822690308094,0.038285162299871445
1775033802285091600,1.199091552734375,9.870393753051758,0.02153540402650833,0.04785645380616188
1775033802336572400,1.250572509765625,9.877572059631348,0.019142581149935722,0.04546362906694412
1775033802388053200,1.30205322265625,9.868000984191895,0.031106693670153618,0.062213387340307236
1775033802439534000,1.3535341796875,9.865608215332031,0.04785645380616188,0.05742774158716202
1775033802491015000,1.405014892578125,9.872786521911621,0.0526420995593071,0.04307080805301666
1775033802542495700,1.456495849609375,9.858428955078125,0.03349951654672623,0.064606212079525
1775033802593976800,1.507976806640625,9.872786521911621,0.03349951654672623,0.0526420995593071
1775033802645457700,1.559457763671875,9.870393753051758,0.031106693670153618,0.04307080805301666
1775033802696938500,1.6109384765625,9.868000984191895,0.038285162299871445,0.040677983313798904
1775033802748419300,1.66241943359375,9.870393753051758,0.007178467698395252,0.02632104977965355
1775033802799900200,1.713900146484375,9.863214492797852,0.02871387079358101,0.05503492057323456
1775033802851381000,1.765381103515625,9.868000984191895,0.02632104977965355,0.040677983313798904
1775033802902861800,1.81686181640625,9.872786521911621,0.019142581149935722,0.02632104977965355
1775033802954342700,1.8683427734375,9.875179290771484,0.02392822690308094,0.035892341285943985
1775033803005823500,1.919823486328125,9.868000984191895,0.031106693670153618,0.04546362906694412
1775033803057304300,1.97130419921875,9.865608215332031,0.016749758273363113,0.04785645380616188
1775033803108785200,2.02278515625,9.856036186218262,0.02632104977965355,0.03349951654672623
1775033803160266000,2.074265869140625,9.865608215332031,0.02153540402650833,0.031106693670153618
1775033803211746800,2.125746826171875,9.863214492797852,0.02871387079358101,0.03349951654672623
1775033803263227600,2.1772275390625,9.870393753051758,0.02871387079358101,0.031106693670153618
1775033803314708500,2.22870849609375,9.872786521911621,0.02153540402650833,0.031106693670153618
1775033803366189300,2.280189208984375,9.877572059631348,0.02632104977965355,0.0526420995593071
1775033803417670100,2.331670166015625,9.870393753051758,0.031106693670153618,0.04785645380616188
1775033803469151000,2.38315087890625,9.877572059631348,0.02153540402650833,0.031106693670153618
1775033803520631800,2.4346318359375,9.875179290771484,0.02632104977965355,0.031106693670153618
1775033803572112600,2.486112548828125,9.860821723937988,0.019142581149935722,0.04307080805301666
1775033803623593500,2.537593505859375,9.870393753051758,0.031106693670153618,0.05742774158716202
1775033803675074300,2.58907421875,9.865608215332031,0.02871387079358101,0.03349951654672623
1775033803726555100,2.64055517578125,9.879964828491211,0.016749758273363113,0.035892341285943985
1775033803778036000,2.692035888671875,9.868000984191895,0.02392822690308094,0.04785645380616188
1775033803829517000,2.74351708984375,9.863214492797852,0.03349951654672623,0.05503492057323456
1775033803880998000,2.794997802734375,9.868000984191895,0.02392822690308094,0.040677983313798904
1775033803932478700,2.846478759765625,9.868000984191895,0.038285162299871445,0.035892341285943985
1775033803983959600,2.89795947265625,9.875179290771484,0.031106693670153618,0.04307080805301666
1775033804035440400,2.9494404296875,9.872786521911621,0.02153540402650833,0.04546362906694412
1775033804086921200,3.000921142578125,9.863214492797852,0.035892341285943985,0.035892341285943985
1775033804138402000,3.052402099609375,9.870393753051758,0.031106693670153618,0.02871387079358101
1775033804189883000,3.1038828125,9.882357597351074,0.02871387079358101,0.038285162299871445
1775033804241363700,3.15536376953125,9.872786521911621,0.02153540402650833,0.05024927482008934
1775033804292844500,3.206844482421875,9.858428955078125,0.019142581149935722,0.040677983313798904
1775033804344325400,3.258325439453125,9.868000984191895,0.02871387079358101,0.038285162299871445
1775033804395806200,3.30980615234375,9.875179290771484,0.02871387079358101,0.040677983313798904
1775033804447287000,3.361287109375,9.868000984191895,0.01196411345154047,0.04785645380616188
1775033804498768000,3.412767822265625,9.879964828491211,0.031106693670153618,0.03349951654672623
1775033804550248700,3.464248779296875,9.872786521911621,0.02632104977965355,0.03349951654672623
1775033804601729500,3.5157294921875,9.865608215332031,0.02632104977965355,0.03349951654672623
1775033804653210400,3.56721044921875,9.875179290771484,0.031106693670153618,0.04785645380616188
1775033804704691200,3.618691162109375,9.868000984191895,0.02871387079358101,0.03349951654672623
1775033804756172000,3.670172119140625,9.879964828491211,0.02871387079358101,0.04785645380616188
1775033804807652900,3.72165283203125,9.882357597351074,0.02392822690308094,0.038285162299871445
1775033804859133700,3.7731337890625,9.872786521911621,0.04307080805301666,0.04785645380616188
1775033804910614500,3.824614501953125,9.860821723937988,0.016749758273363113,0.040677983313798904
1775033804962095400,3.876095458984375,9.863214492797852,0.02392822690308094,0.038285162299871445
1775033805013576200,3.927576171875,9.870393753051758,0.02871387079358101,0.038285162299871445
1775033805065057000,3.97905712890625,9.872786521911621,0.02392822690308094,0.04785645380616188
1775033805116537900,4.030537841796875,9.879964828491211,0.040677983313798904,0.04307080805301666
1775033805168018700,4.082018798828125,9.868000984191895,0.03349951654672623,0.02632104977965355
1775033805219499500,4.13349951171875,9.872786521911621,0.02632104977965355,0.03349951654672623
1775033805270980400,4.18498046875,9.860821723937988,0.02871387079358101,0.04546362906694412
1775033805322461200,4.236461181640625,9.877572059631348,0.02632104977965355,0.05024927482008934
1775033805373942000,4.28794189453125,9.882357597351074,0.031106693670153618,0.038285162299871445
1775033805425422800,4.3394228515625,9.858428955078125,0.02871387079358101,0.040677983313798904
1775033805476903700,4.390903564453125,9.868000984191895,0.02392822690308094,0.04546362906694412
1775033805528384500,4.442384521484375,9.870393753051758,0.038285162299871445,0.04307080805301666
1775033805579865300,4.493865234375,9.879964828491211,0.02871387079358101,0.040677983313798904
1775033805674247000,4.588246826171875,9.875179290771484,0.019142581149935722,0.035892341285943985
1775033805725727700,4.639727783203125,9.877572059631348,0.03349951654672623,0.05024927482008934
1775033805777208600,4.69120849609375,9.863214492797852,0.03349951654672623,0.04785645380616188
1775033805828689400,4.742689453125,9.851250648498535,0.031106693670153618,0.04307080805301666
1775033805880170200,4.794170166015625,9.884750366210938,0.031106693670153618,0.02871387079358101
1775033805931650800,4.84565087890625,9.872786521911621,0.02392822690308094,0.04307080805301666
1775033805983131600,4.897131591796875,9.875179290771484,0.019142581149935722,0.05503492057323456
1775033806034612500,4.948612548828125,9.875179290771484,0.03349951654672623,0.04546362906694412
1775033806086093300,5.00009326171875,9.865608215332031,0.016749758273363113,0.038285162299871445
1775033806137574100,5.05157421875,9.872786521911621,0.031106693670153618,0.038285162299871445
1775033806189055000,5.103054931640625,9.877572059631348,0.031106693670153618,0.04546362906694412
1775033806240535800,5.154535888671875,9.868000984191895,0.02392822690308094,0.05024927482008934
1775033806334917400,5.24891748046875,9.872786521911621,0.035892341285943985,0.031106693670153618
1775033806386398200,5.300398193359375,9.884750366210938,0.016749758273363113,0.04307080805301666
1775033806437879000,5.351879150390625,9.872786521911621,0.03349951654672623,0.04307080805301666
1775033806489360000,5.40335986328125,9.882357597351074,0.03349951654672623,0.040677983313798904
1775033806540840700,5.4548408203125,9.868000984191895,0.014356935396790504,0.02632104977965355
1775033806592321500,5.506321533203125,9.872786521911621,0.02153540402650833,0.02871387079358101
1775033806643802400,5.55780224609375,9.870393753051758,0.031106693670153618,0.04307080805301666
1775033806695283200,5.609283203125,9.870393753051758,0.02632104977965355,0.04785645380616188
1775033806746764000,5.660763916015625,9.870393753051758,0.02871387079358101,0.04546362906694412
1775033806798244900,5.712244873046875,9.875179290771484,0.031106693670153618,0.019142581149935722
1775033806849725700,5.7637255859375,9.870393753051758,0.019142581149935722,0.04307080805301666
1775033806901206500,5.81520654296875,9.875179290771484,0.03349951654672623,0.05742774158716202
1775033806952687000,5.86668701171875,9.865608215332031,0.02871387079358101,0.04785645380616188
1775033807004168000,5.91816796875,9.868000984191895,0.02871387079358101,0.04785645380616188
1775033807055648800,5.969648681640625,9.863214492797852,0.02871387079358101,0.035892341285943985
1775033807107129600,6.021129638671875,9.870393753051758,0.031106693670153618,0.059820566326379776
1775033807158610400,6.0726103515625,9.860821723937988,0.02871387079358101,0.035892341285943985
1775033807210091300,6.12409130859375,9.872786521911621,0.031106693670153618,0.03349951654672623
1775033807261572000,6.175572021484375,9.858428955078125,0.02153540402650833,0.035892341285943985
1775033807313053000,6.227052978515625,9.863214492797852,0.02153540402650833,0.05503492057323456
1775033807364533800,6.27853369140625,9.865608215332031,0.02632104977965355,0.04307080805301666
1775033807416014600,6.3300146484375,9.860821723937988,0.03349951654672623,0.04546362906694412
1775033807467495400,6.381495361328125,9.865608215332031,0.031106693670153618,0.02871387079358101
1775033807518976300,6.432976318359375,9.877572059631348,0.02871387079358101,0.05024927482008934
1775033807570456800,6.484456787109375,9.860821723937988,0.02632104977965355,0.04307080805301666
1775033807621937700,6.535937744140625,9.870393753051758,0.019142581149935722,0.038285162299871445
1775033807673418500,6.58741845703125,9.872786521911621,0.031106693670153618,0.038285162299871445
1775033807724899300,6.6388994140625,9.877572059631348,0.019142581149935722,0.04785645380616188
1775033807776380200,6.690380126953125,9.858428955078125,0.02632104977965355,0.04307080805301666
1775033807827861000,6.741861083984375,9.884750366210938,0.02632104977965355,0.038285162299871445
1775033807879341800,6.793341796875,9.856036186218262,0.035892341285943985,0.04307080805301666
1775033807930822700,6.84482275390625,9.884750366210938,0.03349951654672623,0.05503492057323456
1775033807982303500,6.896303466796875,9.865608215332031,0.035892341285943985,0.040677983313798904
1775033808033784000,6.9477841796875,9.863214492797852,0.031106693670153618,0.038285162299871445
1775033808085265000,6.999264892578125,9.868000984191895,0.02153540402650833,0.038285162299871445
1775033808136745700,7.050745849609375,9.865608215332031,0.02392822690308094,0.04785645380616188
1775033808188226600,7.1022265625,9.858428955078125,0.02632104977965355,0.05024927482008934
1775033808239707400,7.153707275390625,9.865608215332031,0.02153540402650833,0.04546362906694412
1775033808291188200,7.205188232421875,9.872786521911621,0.031106693670153618,0.04307080805301666
1775033808342669000,7.2566689453125,9.877572059631348,0.031106693670153618,0.035892341285943985
1775033808394150000,7.30814990234375,9.877572059631348,0.019142581149935722,0.05024927482008934
1775033808445630500,7.35963037109375,9.872786521911621,0.035892341285943985,0.03349951654672623
1775033808497111300,7.411111328125,9.877572059631348,0.03349951654672623,0.04307080805301666
1775033808548592000,7.462592041015625,9.882357597351074,0.02871387079358101,0.04307080805301666
1775033808600073000,7.514072998046875,9.879964828491211,0.02871387079358101,0.05024927482008934
1775033808651553800,7.5655537109375,9.863214492797852,0.02871387079358101,0.038285162299871445
1775033808703034600,7.61703466796875,9.868000984191895,0.03349951654672623,0.038285162299871445
1775033808754515200,7.66851513671875,9.877572059631348,0.03349951654672623,0.04307080805301666
1775033808805996000,7.71999609375,9.868000984191895,0.02871387079358101,0.0526420995593071
1775033808857476900,7.771476806640625,9.858428955078125,0.02871387079358101,0.040677983313798904
1775033808908957700,7.822957763671875,9.868000984191895,0.031106693670153618,0.031106693670153618
1775033808960438500,7.8744384765625,9.877572059631348,0.02871387079358101,0.038285162299871445
1775033809011919400,7.92591943359375,9.860821723937988,0.02632104977965355,0.05024927482008934
1775033809063400200,7.977400146484375,9.872786521911621,0.03349951654672623,0.040677983313798904
1775033809114880800,8.028880859375,9.865608215332031,0.03349951654672623,0.02632104977965355
1775033809166361600,8.080361572265625,9.879964828491211,0.019142581149935722,0.040677983313798904
1775033809217842400,8.131842529296875,9.872786521911621,0.031106693670153618,0.0526420995593071
1775033809269323300,8.1833232421875,9.870393753051758,0.02871387079358101,0.04546362906694412
1775033809320804000,8.23480419921875,9.863214492797852,0.031106693670153618,0.035892341285943985
1775033809372285000,8.286284912109375,9.875179290771484,0.035892341285943985,0.03349951654672623
1775033809423765800,8.337765869140625,9.872786521911621,0.03349951654672623,0.04785645380616188
1775033809475246300,8.389246337890626,9.868000984191895,0.02632104977965355,0.04307080805301666
1775033809526727200,8.44072705078125,9.870393753051758,0.02871387079358101,0.02871387079358101
1775033809578208000,8.4922080078125,9.872786521911621,0.03349951654672623,0.03349951654672623
1775033809629688800,8.543688720703125,9.870393753051758,0.02632104977965355,0.0526420995593071
1775033809681169700,8.595169677734376,9.858428955078125,0.038285162299871445,0.04785645380616188
1775033809732650200,8.646650146484374,9.870393753051758,0.02632104977965355,0.03349951654672623
1775033809784131000,8.698131103515625,9.868000984191895,0.02871387079358101,0.04307080805301666
1775033809835612000,8.74961181640625,9.865608215332031,0.02153540402650833,0.040677983313798904
1775033809887092700,8.8010927734375,9.884750366210938,0.031106693670153618,0.04546362906694412
1775033809938573600,8.852573486328126,9.868000984191895,0.02871387079358101,0.035892341285943985
1775033809990054400,8.904054443359374,9.868000984191895,0.02392822690308094,0.04785645380616188
1775033810041535000,8.955534912109375,9.872786521911621,0.02632104977965355,0.05024927482008934
1775033810093015800,9.007015869140625,9.879964828491211,0.009571290574967861,0.031106693670153618
1775033810144496600,9.05849658203125,9.884750366210938,0.02871387079358101,0.02153540402650833
1775033810195977500,9.1099775390625,9.875179290771484,0.02392822690308094,0.035892341285943985
1775033810247458300,9.161458251953125,9.870393753051758,0.02153540402650833,0.04546362906694412
1775033810298939000,9.21293896484375,9.870393753051758,0.02153540402650833,0.04785645380616188
1775033810350419700,9.264419677734375,9.875179290771484,0.02871387079358101,0.02392822690308094
1775033810401900500,9.315900634765624,9.863214492797852,0.02871387079358101,0.035892341285943985
1775033810453381400,9.36738134765625,9.875179290771484,0.03349951654672623,0.040677983313798904
1775033810504862200,9.4188623046875,9.860821723937988,0.038285162299871445,0.04307080805301666
1775033810556343000,9.470343017578125,9.875179290771484,0.02632104977965355,0.038285162299871445
1775033810607824000,9.521823974609376,9.865608215332031,0.035892341285943985,0.02871387079358101
1775033810659304400,9.573304443359374,9.875179290771484,0.038285162299871445,0.038285162299871445
1775033810710785300,9.624785400390625,9.858428955078125,0.02871387079358101,0.04785645380616188
1775033810762266000,9.67626611328125,9.868000984191895,0.03349951654672623,0.04307080805301666
1775033810813747000,9.727746826171876,9.872786521911621,0.02153540402650833,0.03349951654672623
1775033810865227500,9.7792275390625,9.884750366210938,0.035892341285943985,0.038285162299871445
1775033810916708400,9.830708251953125,9.853643417358398,0.031106693670153618,0.059820566326379776
1775033810968189200,9.882189208984375,9.858428955078125,0.02632104977965355,0.04785645380616188
1775033811019670000,9.933669921875,9.858428955078125,0.014356935396790504,0.02871387079358101
1775033811071150800,9.98515087890625,9.875179290771484,0.02632104977965355,0.031106693670153618
1775033811122631700,10.036631591796874,9.870393753051758,0.02871387079358101,0.0526420995593071
1775033811174112300,10.0881123046875,9.868000984191895,0.02392822690308094,0.05024927482008934
1775033811225593000,10.139593017578125,9.882357597351074,0.02632104977965355,0.038285162299871445
1775033811277074000,10.191073974609376,9.870393753051758,0.016749758273363113,0.040677983313798904
1775033811328554800,10.2425546875,9.868000984191895,0.031106693670153618,0.038285162299871445
1775033811380035300,10.294035400390625,9.863214492797852,0.016749758273363113,0.05024927482008934
1775033811431516200,10.34551611328125,9.863214492797852,0.02153540402650833,0.031106693670153618
1775033811482997000,10.3969970703125,9.865608215332031,0.035892341285943985,0.038285162299871445
1775033811534477800,10.448477783203124,9.879964828491211,0.02632104977965355,0.040677983313798904
1775033811585958400,10.49995849609375,9.884750366210938,0.02392822690308094,0.04546362906694412
1775033811637439200,10.551439208984375,9.865608215332031,0.03349951654672623,0.035892341285943985
1775033811688920000,10.602920166015625,9.877572059631348,0.03349951654672623,0.02871387079358101
1775033811740401000,10.65440087890625,9.877572059631348,0.02153540402650833,0.04307080805301666
1775033811791881700,10.7058818359375,9.868000984191895,0.02632104977965355,0.040677983313798904
1775033811843362300,10.7573623046875,9.870393753051758,0.02392822690308094,0.02632104977965355
1775033811894843100,10.808843017578125,9.884750366210938,0.02153540402650833,0.04785645380616188
1775033811946324000,10.860323974609376,9.879964828491211,0.03349951654672623,0.04546362906694412
1775033811997804800,10.9118046875,9.879964828491211,0.03349951654672623,0.038285162299871445
1775033812049285400,10.963285400390625,9.856036186218262,0.02871387079358101,0.040677983313798904
1775033812100766200,11.01476611328125,9.872786521911621,0.02153540402650833,0.038285162299871445
1775033812152247000,11.0662470703125,9.848857879638672,0.02871387079358101,0.0526420995593071
1775033812203728000,11.117727783203126,9.865608215332031,0.02392822690308094,0.03349951654672623
1775033812255208400,11.16920849609375,9.870393753051758,0.019142581149935722,0.03349951654672623
1775033812306689300,11.220689208984375,9.875179290771484,0.02392822690308094,0.038285162299871445
1775033812358170000,11.272170166015625,9.863214492797852,0.035892341285943985,0.04785645380616188
1775033812409651000,11.32365087890625,9.868000984191895,0.02632104977965355,0.0526420995593071
1775033812461131500,11.375131591796874,9.865608215332031,0.02871387079358101,0.04307080805301666
1775033812512612400,11.4266123046875,9.868000984191895,0.02392822690308094,0.038285162299871445
1775033812564093200,11.47809326171875,9.868000984191895,0.02871387079358101,0.04307080805301666
1775033812615573800,11.52957373046875,9.868000984191895,0.031106693670153618,0.040677983313798904
1775033812667054600,11.5810546875,9.863214492797852,0.02632104977965355,0.04785645380616188
1775033812718535400,11.632535400390625,9.872786521911621,0.031106693670153618,0.02871387079358101
1775033812770016300,11.684016357421875,9.872786521911621,0.02871387079358101,0.035892341285943985
1775033812821496800,11.735496826171875,9.868000984191895,0.035892341285943985,0.04785645380616188
1775033812872977700,11.786977783203126,9.868000984191895,0.035892341285943985,0.04307080805301666
1775033812924458500,11.83845849609375,9.863214492797852,0.02871387079358101,0.02632104977965355
1775033812975939000,11.88993896484375,9.8871431350708,0.031106693670153618,0.02871387079358101
1775033813027420000,11.941419921875,9.863214492797852,0.02632104977965355,0.05503492057323456
1775033813078900700,11.992900634765626,9.875179290771484,0.02392822690308094,0.038285162299871445
1775033813130381600,12.044381591796874,9.882357597351074,0.035892341285943985,0.02871387079358101
1775033813181862100,12.095862060546875,9.875179290771484,0.038285162299871445,0.03349951654672623
1775033813233343000,12.147343017578125,9.872786521911621,0.02871387079358101,0.05024927482008934
1775033813284823800,12.19882373046875,9.863214492797852,0.02153540402650833,0.05024927482008934
1775033813336304400,12.250304443359376,9.882357597351074,0.01196411345154047,0.040677983313798904
1775033813387785200,12.30178515625,9.872786521911621,0.02632104977965355,0.031106693670153618
1775033813439266000,12.35326611328125,9.879964828491211,0.02392822690308094,0.04785645380616188
1775033813490746600,12.40474658203125,9.882357597351074,0.02153540402650833,0.04785645380616188
1775033813542227500,12.4562275390625,9.853643417358398,0.03349951654672623,0.035892341285943985
1775033813593708300,12.507708251953124,9.870393753051758,0.038285162299871445,0.02871387079358101
1775033813645189000,12.559189208984375,9.870393753051758,0.02392822690308094,0.035892341285943985
1775033813696669700,12.610669677734375,9.879964828491211,0.02632104977965355,0.04546362906694412
1775033813748150500,12.662150634765625,9.868000984191895,0.03349951654672623,0.04785645380616188
1775033813799631000,12.713631103515626,9.870393753051758,0.019142581149935722,0.04546362906694412
1775033813851112000,12.76511181640625,9.879964828491211,0.038285162299871445,0.03349951654672623
1775033813902592800,12.8165927734375,9.868000984191895,0.04307080805301666,0.04307080805301666
1775033813954073300,12.8680732421875,9.879964828491211,0.019142581149935722,0.04546362906694412
1775033814005554200,12.91955419921875,9.877572059631348,0.031106693670153618,0.040677983313798904
1775033814057035000,12.971034912109374,9.877572059631348,0.014356935396790504,0.035892341285943985
1775033814108515600,13.022515625,9.868000984191895,0.02632104977965355,0.04307080805301666
1775033814159996400,13.073996337890625,9.872786521911621,0.02632104977965355,0.04307080805301666
1775033814254377700,13.168377685546876,9.870393753051758,0.02632104977965355,0.04307080805301666
1775033814305858600,13.219858642578124,9.863214492797852,0.02392822690308094,0.035892341285943985
1775033814357339400,13.27133935546875,9.875179290771484,0.02871387079358101,0.035892341285943985
1775033814408820000,13.322820068359375,9.875179290771484,0.031106693670153618,0.05503492057323456
1775033814460300800,13.37430078125,9.877572059631348,0.03349951654672623,0.05024927482008934
1775033814554682000,13.46868212890625,9.875179290771484,0.009571290574967861,0.040677983313798904
1775033814606163000,13.520162841796875,9.860821723937988,0.02871387079358101,0.031106693670153618
1775033814657643500,13.5716435546875,9.879964828491211,0.02153540402650833,0.031106693670153618
1775033814709124400,13.623124267578126,9.868000984191895,0.031106693670153618,0.04546362906694412
1775033814760605000,13.67460498046875,9.875179290771484,0.02392822690308094,0.0526420995593071
1775033814812085800,13.726085693359375,9.860821723937988,0.019142581149935722,0.040677983313798904
1775033814863566600,13.777566650390625,9.882357597351074,0.02392822690308094,0.040677983313798904
1775033814915047200,13.829047119140625,9.868000984191895,0.02153540402650833,0.031106693670153618
1775033814966528000,13.880528076171874,9.868000984191895,0.02871387079358101,0.05024927482008934
1775033815018008800,13.9320087890625,9.868000984191895,0.02871387079358101,0.035892341285943985
1775033815069489400,13.983489501953125,9.870393753051758,0.02392822690308094,0.040677983313798904
1775033815120970200,14.03497021484375,9.884750366210938,0.019142581149935722,0.03349951654672623
1775033815172450800,14.086450927734376,9.879964828491211,0.03349951654672623,0.04307080805301666
1775033815223931600,14.137931640625,9.875179290771484,0.02871387079358101,0.04307080805301666
1775033815275412500,14.18941259765625,9.865608215332031,-0.019142581149935722,0.035892341285943985
1775033815326893000,14.24089306640625,9.884750366210938,0.02392822690308094,0.01196411345154047
1775033815378374000,14.292373779296875,9.882357597351074,0.02153540402650833,0.02871387079358101
1775033815429854700,14.343854736328124,9.865608215332031,0.014356935396790504,0.05503492057323456
1775033815481335300,14.395335205078124,9.8871431350708,0.02871387079358101,0.05024927482008934
1775033815532816100,14.446816162109375,9.879964828491211,0.03349951654672623,0.04307080805301666
1775033815584296700,14.498296630859375,9.870393753051758,0.031106693670153618,0.05024927482008934
1775033815635777500,14.549777587890626,9.872786521911621,0.02632104977965355,0.04546362906694412
1775033815687258400,14.60125830078125,9.877572059631348,0.02153540402650833,0.02632104977965355
1775033815738739000,14.652739013671875,9.882357597351074,0.02392822690308094,0.02871387079358101
1775033815790219800,14.7042197265625,9.877572059631348,0.038285162299871445,0.03349951654672623
1775033815841700400,14.755700439453125,9.860821723937988,0.040677983313798904,0.0526420995593071
1775033815893181200,14.80718115234375,9.870393753051758,0.03349951654672623,0.04546362906694412
1775033815944662000,14.858662109375,9.860821723937988,0.035892341285943985,0.035892341285943985
1775033815996142600,14.910142578125,9.865608215332031,0.02871387079358101,0.04785645380616188
1775033816047623400,14.96162353515625,9.856036186218262,0.04307080805301666,0.05742774158716202
1775033816099104300,15.013104248046876,9.858428955078125,0.02392822690308094,0.04307080805301666
1775033816150584800,15.064584716796874,9.872786521911621,0.02871387079358101,0.03349951654672623
1775033816202065700,15.116065673828125,9.882357597351074,0.02392822690308094,0.040677983313798904
1775033816253546200,15.167546142578125,9.860821723937988,0.04307080805301666,0.038285162299871445
1775033816305027000,15.219027099609375,9.858428955078125,-0.05024927482008934,0.04546362906694412
1775033816356507600,15.270507568359376,9.875179290771484,-0.02153540402650833,0.016749758273363113
1775033816407988500,15.321988525390625,9.8871431350708,0.0526420995593071,0.04785645380616188
1775033816459469300,15.37346923828125,9.870393753051758,0.06699903309345245,0.064606212079525
1775033816510950000,15.424949951171875,9.875179290771484,0.04546362906694412,0.035892341285943985
1775033816562430700,15.4764306640625,9.882357597351074,0.009571290574967861,0.016749758273363113
1775033816613911300,15.527911376953124,9.877572059631348,0.038285162299871445,0.035892341285943985
1775033816665392000,15.57939208984375,9.870393753051758,0.05024927482008934,0.04307080805301666
1775033816716873000,15.630873046875,9.877572059631348,0.035892341285943985,0.038285162299871445
1775033816768353500,15.682353515625,9.875179290771484,0.02392822690308094,0.035892341285943985
1775033816819834400,15.73383447265625,9.868000984191895,0.031106693670153618,0.035892341285943985
1775033816871315000,15.78531494140625,9.868000984191895,0.040677983313798904,0.0526420995593071
1775033816922795800,15.836795654296875,9.868000984191895,0.03349951654672623,0.04546362906694412
1775033816974276400,15.8882763671875,9.8871431350708,0.02632104977965355,0.03349951654672623
1775033817025757200,15.939757080078126,9.879964828491211,0.040677983313798904,0.04785645380616188
1775033817077238000,15.991238037109374,9.882357597351074,0.016749758273363113,0.03349951654672623
1775033817128718600,16.042718505859376,9.868000984191895,0.040677983313798904,0.0526420995593071
1775033817180199400,16.094199462890625,9.868000984191895,0.02871387079358101,0.038285162299871445
1775033817231680000,16.145679931640625,9.868000984191895,0.03349951654672623,0.04546362906694412
1775033817283160800,16.197160888671874,9.870393753051758,0.02632104977965355,0.04785645380616188
1775033817334641400,16.248641357421874,9.877572059631348,0.03349951654672623,0.05024927482008934
1775033817386122200,16.300122314453127,9.877572059631348,0.02153540402650833,0.03349951654672623
1775033817437603000,16.35160302734375,9.853643417358398,0.02871387079358101,0.04307080805301666
1775033817489083600,16.403083740234376,9.872786521911621,0.035892341285943985,0.04785645380616188
1775033817540564500,16.454564453125,9.875179290771484,0.03349951654672623,0.04785645380616188
1775033817634945800,16.54894580078125,9.879964828491211,0.035892341285943985,0.035892341285943985
1775033817686426400,16.60042626953125,9.889535903930664,0.031106693670153618,0.03349951654672623
1775033817737907200,16.6519072265625,9.872786521911621,0.035892341285943985,0.035892341285943985
1775033817789387800,16.7033876953125,9.865608215332031,0.031106693670153618,0.04785645380616188
1775033817840868600,16.75486865234375,9.879964828491211,0.02632104977965355,0.04307080805301666
1775033817892349400,16.806349365234375,9.870393753051758,0.016749758273363113,0.031106693670153618
1775033817943830000,16.857830078125,9.860821723937988,0.031106693670153618,0.04307080805301666
1775033817995310800,16.909310791015624,9.875179290771484,0.02632104977965355,0.040677983313798904
1775033818046791400,16.96079150390625,9.884750366210938,0.02392822690308094,0.04546362906694412
1775033818098272300,17.012272216796877,9.877572059631348,0.02871387079358101,0.035892341285943985
1775033818149752800,17.0637529296875,9.879964828491211,0.035892341285943985,0.038285162299871445
1775033818201233700,17.115233642578126,9.872786521911621,0.035892341285943985,0.040677983313798904
1775033818252714200,17.16671435546875,9.877572059631348,0.019142581149935722,0.04307080805301666
1775033818304195000,17.218195068359375,9.863214492797852,0.02153540402650833,0.04307080805301666
1775033818355675600,17.269675537109375,9.877572059631348,0.02392822690308094,0.040677983313798904
1775033818407156500,17.321156494140624,9.870393753051758,0.031106693670153618,0.04546362906694412
1775033818458637000,17.372636962890624,9.884750366210938,0.02871387079358101,0.038285162299871445
1775033818510118000,17.424117919921876,9.856036186218262,0.035892341285943985,0.035892341285943985
1775033818561598500,17.475598388671877,9.879964828491211,0.02153540402650833,0.02632104977965355
1775033818613079300,17.527079345703125,9.868000984191895,0.035892341285943985,0.038285162299871445
1775033818664559900,17.578559814453126,9.865608215332031,0.02871387079358101,0.038285162299871445
1775033818716040700,17.630040771484374,9.872786521911621,0.03349951654672623,0.031106693670153618
1775033818767521300,17.681521240234375,9.868000984191895,0.02871387079358101,0.038285162299871445
1775033818819002000,17.733002197265623,9.877572059631348,0.02632104977965355,0.05024927482008934
1775033818870482700,17.784482666015624,9.872786521911621,0.031106693670153618,0.04307080805301666
1775033818921963500,17.835963623046876,9.868000984191895,0.007178467698395252,0.038285162299871445
1775033818973444000,17.887444091796876,9.870393753051758,0.03349951654672623,0.03349951654672623
1775033819024925000,17.938925048828125,9.882357597351074,0.02632104977965355,0.05503492057323456
1775033819076405500,17.990405517578125,9.879964828491211,0.031106693670153618,0.04785645380616188
1775033819127886300,18.04188623046875,9.8871431350708,0.02392822690308094,0.035892341285943985
1775033819179367000,18.093366943359374,9.877572059631348,0.031106693670153618,0.02871387079358101
1775033819230847700,18.14484765625,9.858428955078125,0.02392822690308094,0.04785645380616188
1775033819282328600,18.19632861328125,9.8871431350708,0.031106693670153618,0.0526420995593071
1775033819333809200,18.24780908203125,9.875179290771484,0.02632104977965355,0.035892341285943985
1775033819385290000,18.2992900390625,9.877572059631348,0.02871387079358101,0.040677983313798904
1775033819436770800,18.350770751953124,9.8871431350708,0.02632104977965355,0.05024927482008934
1775033819488251400,18.40225146484375,9.889535903930664,0.02871387079358101,0.040677983313798904
1775033819539732000,18.45373193359375,9.879964828491211,0.02871387079358101,0.04307080805301666
1775033819634113300,18.54811328125,9.872786521911621,0.02153540402650833,0.038285162299871445
1775033819685594000,18.599593994140626,9.865608215332031,0.02153540402650833,0.02392822690308094
1775033819737074700,18.65107470703125,9.872786521911621,0.031106693670153618,0.04307080805301666
1775033819788555500,18.702555419921875,9.858428955078125,0.038285162299871445,0.04307080805301666
1775033819840036000,18.7540361328125,9.868000984191895,0.035892341285943985,0.03349951654672623
1775033819891516700,18.8055166015625,9.872786521911621,0.02153540402650833,0.02632104977965355
1775033819942997500,18.85699755859375,9.868000984191895,0.03349951654672623,0.038285162299871445
1775033819994478000,18.90847802734375,9.870393753051758,0.02153540402650833,0.04785645380616188
1775033820045959000,18.959958984375,9.865608215332031,0.019142581149935722,0.04785645380616188
1775033820097439500,19.011439453125,9.870393753051758,0.016749758273363113,0.038285162299871445
1775033820148920300,19.06292041015625,9.868000984191895,0.03349951654672623,0.03349951654672623
1775033820200401000,19.11440087890625,9.860821723937988,0.019142581149935722,0.04307080805301666
1775033820251881700,19.1658818359375,9.884750366210938,0.02153540402650833,0.05024927482008934
1775033820303362300,19.2173623046875,9.875179290771484,0.016749758273363113,0.02871387079358101
1775033820354843100,19.268843017578124,9.8871431350708,0.02153540402650833,0.03349951654672623
1775033820406323700,19.32032373046875,9.868000984191895,0.02632104977965355,0.05503492057323456
1775033820457804300,19.37180419921875,9.872786521911621,0.02632104977965355,0.04546362906694412
1775033820509285000,19.42328515625,9.884750366210938,0.035892341285943985,0.03349951654672623
1775033820560765700,19.474765625,9.860821723937988,0.02392822690308094,0.031106693670153618
1775033820612246500,19.52624658203125,9.860821723937988,0.031106693670153618,0.038285162299871445
1775033820663727000,19.57772705078125,9.865608215332031,0.02871387079358101,0.04785645380616188
1775033820715208000,19.6292080078125,9.868000984191895,0.019142581149935722,0.04546362906694412
1775033820766688500,19.6806884765625,9.875179290771484,0.02632104977965355,0.035892341285943985
1775033820818169300,19.73216943359375,9.875179290771484,0.02871387079358101,0.04785645380616188
1775033820869650000,19.78364990234375,9.870393753051758,0.031106693670153618,0.040677983313798904
1775033820921130500,19.835130615234377,9.870393753051758,0.02871387079358101,0.04785645380616188
1775033820972611300,19.886611328125,9.868000984191895,0.031106693670153618,0.040677983313798904
1775033821024092000,19.938091796875,9.884750366210938,0.02871387079358101,0.04307080805301666
1775033821075572700,19.98957275390625,9.865608215332031,0.03349951654672623,0.04307080805301666
1775033821127053300,20.04105322265625,9.860821723937988,0.031106693670153618,0.04307080805301666
1775033821178534000,20.092533935546875,9.875179290771484,0.02153540402650833,0.03349951654672623
1775033821230014700,20.1440146484375,9.863214492797852,0.03349951654672623,0.040677983313798904
1775033821281495300,20.195495361328124,9.879964828491211,0.02632104977965355,0.038285162299871445
1775033821332976000,20.24697607421875,9.882357597351074,0.02632104977965355,0.04307080805301666
1775033821384456700,20.298456787109377,9.879964828491211,0.02632104977965355,0.031106693670153618
1775033821435937500,20.3499375,9.863214492797852,0.02632104977965355,0.04785645380616188
1775033821487418000,20.401418212890626,9.879964828491211,0.02871387079358101,0.040677983313798904
1775033821538898700,20.452898681640626,9.879964828491211,0.03349951654672623,0.038285162299871445
1775033821590379500,20.504379638671875,9.870393753051758,0.02632104977965355,0.031106693670153618
1775033821641860000,20.555860107421875,9.856036186218262,0.02392822690308094,0.03349951654672623
1775033821693341000,20.6073408203125,9.860821723937988,0.02392822690308094,0.05024927482008934
1775033821744821500,20.658821533203124,9.884750366210938,0.02871387079358101,0.04546362906694412
1775033821796302000,20.710302001953124,9.872786521911621,0.02153540402650833,0.03349951654672623
1775033821847783000,20.761782958984377,9.863214492797852,0.02632104977965355,0.04307080805301666
1775033821899263500,20.813263427734373,9.872786521911621,0.031106693670153618,0.04785645380616188
1775033821950744300,20.864744384765626,9.870393753051758,0.035892341285943985,0.035892341285943985
1775033822002225000,20.916224853515626,9.872786521911621,0.038285162299871445,0.035892341285943985
1775033822053705500,20.96770556640625,9.851250648498535,0.040677983313798904,0.05742774158716202
1775033822105186300,21.019186279296875,9.868000984191895,0.035892341285943985,0.04785645380616188
1775033822156667000,21.0706669921875,9.875179290771484,0.014356935396790504,0.038285162299871445
1775033822208147500,21.1221474609375,9.875179290771484,0.02871387079358101,0.040677983313798904
1775033822259628300,21.173628173828124,9.872786521911621,0.02153540402650833,0.05503492057323456
1775033822311108900,21.22510888671875,9.884750366210938,0.02632104977965355,0.04785645380616188
1775033822362589700,21.276589599609373,9.872786521911621,0.02871387079358101,0.03349951654672623
1775033822414070300,21.3280703125,9.879964828491211,0.02871387079358101,0.03349951654672623
1775033822465551000,21.379551025390626,9.872786521911621,0.019142581149935722,0.05742774158716202
1775033822517031700,21.43103173828125,9.875179290771484,0.016749758273363113,0.05503492057323456
1775033822568512300,21.48251220703125,9.863214492797852,0.02871387079358101,0.040677983313798904
1775033822619993000,21.5339931640625,9.872786521911621,0.031106693670153618,0.040677983313798904
1775033822671473700,21.5854736328125,9.877572059631348,0.02871387079358101,0.04307080805301666
1775033822722954200,21.636954345703124,9.853643417358398,0.02871387079358101,0.04785645380616188
1775033822774435000,21.68843505859375,9.870393753051758,0.02871387079358101,0.040677983313798904
1775033822825915600,21.73991552734375,9.860821723937988,0.02871387079358101,0.035892341285943985
1775033822877396500,21.791396484375,9.870393753051758,0.03349951654672623,0.05024927482008934
1775033822928877000,21.842876953125,9.870393753051758,0.031106693670153618,0.04785645380616188
1775033822980357600,21.894357666015626,9.877572059631348,0.035892341285943985,0.035892341285943985
1775033823031838500,21.94583837890625,9.853643417358398,0.03349951654672623,0.02153540402650833
1775033823083319000,21.997319091796875,9.891928672790527,0.02392822690308094,0.040677983313798904
1775033823134799600,22.048799560546875,9.865608215332031,0.02632104977965355,0.04546362906694412
1775033823186280400,22.100280517578124,9.872786521911621,0.02871387079358101,0.038285162299871445
1775033823237761000,22.151760986328124,9.879964828491211,0.02871387079358101,0.02871387079358101
1775033823289241900,22.203241943359377,9.858428955078125,0.031106693670153618,0.035892341285943985
1775033823340722400,22.254722412109373,9.872786521911621,0.02392822690308094,0.05742774158716202
1775033823435103700,22.349103759765626,9.882357597351074,0.031106693670153618,0.038285162299871445
1775033823486584300,22.400584228515626,9.884750366210938,0.031106693670153618,0.040677983313798904
1775033823538065000,22.45206494140625,9.872786521911621,0.02392822690308094,0.040677983313798904
1775033823589545700,22.503545654296875,9.863214492797852,0.02632104977965355,0.04785645380616188
1775033823641026300,22.5550263671875,9.872786521911621,0.02153540402650833,0.03349951654672623
1775033823735407600,22.64940771484375,9.865608215332031,0.02632104977965355,0.02392822690308094
1775033823786888200,22.70088818359375,9.865608215332031,0.035892341285943985,0.02392822690308094
1775033823838368800,22.75236865234375,9.868000984191895,0.02871387079358101,0.04785645380616188
1775033823889849600,22.803849609375,9.863214492797852,0.02153540402650833,0.05024927482008934
1775033823941330200,22.855330078125,9.865608215332031,0.04546362906694412,0.0526420995593071
1775033823992811000,22.90681103515625,9.877572059631348,0.03349951654672623,0.040677983313798904
1775033824044291600,22.95829150390625,9.882357597351074,0.035892341285943985,0.05503492057323456
1775033824095772200,23.009772216796875,9.868000984191895,0.03349951654672623,0.040677983313798904
1775033824147253000,23.0612529296875,9.879964828491211,0.02632104977965355,0.038285162299871445
1775033824198733600,23.112733642578124,9.875179290771484,0.02392822690308094,0.038285162299871445
1775033824250214100,23.164214111328125,9.872786521911621,0.031106693670153618,0.04307080805301666
1775033824301695000,23.215695068359373,9.882357597351074,0.014356935396790504,0.04546362906694412
1775033824353175600,23.267175537109374,9.860821723937988,0.031106693670153618,0.04546362906694412
1775033824404656000,23.31865625,9.872786521911621,0.031106693670153618,0.02871387079358101
1775033824456137000,23.370136962890626,9.875179290771484,0.035892341285943985,0.04546362906694412
1775033824507617500,23.421617431640627,9.868000984191895,0.019142581149935722,0.04307080805301666
1775033824559098000,23.47309814453125,9.872786521911621,0.040677983313798904,0.038285162299871445
1775033824610579000,23.524578857421876,9.868000984191895,0.031106693670153618,0.04307080805301666
1775033824662059500,23.5760595703125,9.870393753051758,0.03349951654672623,0.038285162299871445
1775033824713540400,23.627540283203125,9.863214492797852,0.038285162299871445,0.04785645380616188
1775033824765021000,23.67902099609375,9.860821723937988,0.014356935396790504,0.02392822690308094
1775033824816501500,23.73050146484375,9.879964828491211,0.02871387079358101,0.040677983313798904
1775033824867982000,23.781982177734374,9.879964828491211,0.038285162299871445,0.04546362906694412
1775033824919463000,23.833462890625,9.868000984191895,0.02153540402650833,0.05503492057323456
1775033824970943500,23.884943603515627,9.853643417358398,0.02632104977965355,0.040677983313798904
1775033825022424000,23.936424072265623,9.872786521911621,0.016749758273363113,0.038285162299871445
1775033825073905000,23.98790478515625,9.863214492797852,0.02632104977965355,0.0526420995593071
1775033825125385500,24.039385498046876,9.868000984191895,0.019142581149935722,0.038285162299871445
1775033825176866000,24.090865966796876,9.870393753051758,0.02392822690308094,0.035892341285943985
1775033825228347000,24.142346923828125,9.872786521911621,0.03349951654672623,0.038285162299871445
1775033825279827500,24.193827392578125,9.891928672790527,0.03349951654672623,0.04785645380616188
1775033825331308000,24.24530810546875,9.870393753051758,0.02632104977965355,0.038285162299871445
1775033825382788900,24.296788818359374,9.875179290771484,0.019142581149935722,0.040677983313798904
1775033825434269400,24.34826953125,9.879964828491211,0.02153540402650833,0.040677983313798904
1775033825485750000,24.39975,9.8871431350708,0.03349951654672623,0.038285162299871445
1775033825537230600,24.451230712890624,9.877572059631348,0.02871387079358101,0.035892341285943985
1775033825588711400,24.50271142578125,9.858428955078125,0.040677983313798904,0.02871387079358101
1775033825640192000,24.55419189453125,9.879964828491211,0.02632104977965355,0.02392822690308094
1775033825691672600,24.605672607421877,9.860821723937988,0.038285162299871445,0.05503492057323456
1775033825743153400,24.6571533203125,9.8871431350708,0.02632104977965355,0.038285162299871445
1775033825794634000,24.708634033203126,9.863214492797852,0.038285162299871445,0.035892341285943985
1775033825846114600,24.760114501953126,9.858428955078125,0.035892341285943985,0.040677983313798904
1775033825897595400,24.811595458984375,9.877572059631348,0.016749758273363113,0.035892341285943985
1775033825949076000,24.863075927734375,9.884750366210938,0.02153540402650833,0.035892341285943985
1775033826000556500,24.914556640625,9.879964828491211,0.02632104977965355,0.038285162299871445
1775033826052037000,24.966037109375,9.860821723937988,0.02392822690308094,0.038285162299871445
1775033826103518000,25.01751806640625,9.872786521911621,0.031106693670153618,0.04546362906694412
1775033826154998500,25.06899853515625,9.870393753051758,0.02632104977965355,0.04307080805301666
1775033826206479000,25.12047900390625,9.863214492797852,0.01196411345154047,0.02632104977965355
1775033826257960000,25.1719599609375,9.872786521911621,0.016749758273363113,0.038285162299871445
1775033826309440500,25.2234404296875,9.872786521911621,0.02392822690308094,0.05024927482008934
1775033826360921000,25.274921142578126,9.879964828491211,0.019142581149935722,0.04546362906694412
1775033826412401700,25.326401611328127,9.868000984191895,0.031106693670153618,0.038285162299871445
1775033826463882200,25.37788232421875,9.856036186218262,0.03349951654672623,0.04785645380616188
1775033826515363000,25.429363037109376,9.868000984191895,0.035892341285943985,0.038285162299871445
1775033826566843600,25.48084375,9.872786521911621,0.02632104977965355,0.04785645380616188
1775033826618324200,25.53232421875,9.884750366210938,0.031106693670153618,0.035892341285943985
1775033826669805000,25.58380517578125,9.860821723937988,0.03349951654672623,0.03349951654672623
1775033826721285600,25.63528564453125,9.870393753051758,0.02871387079358101,0.04307080805301666
1775033826772766200,25.68676611328125,9.863214492797852,0.02871387079358101,0.0526420995593071
1775033826824246800,25.738246826171874,9.877572059631348,0.04546362906694412,0.04785645380616188
1775033826875727600,25.7897275390625,9.882357597351074,0.031106693670153618,0.02632104977965355
1775033826927208200,25.841208251953127,9.877572059631348,0.031106693670153618,0.04546362906694412
1775033826978688800,25.892688720703124,9.877572059631348,0.038285162299871445,0.05024927482008934
1775033827030169300,25.94416943359375,9.863214492797852,0.02392822690308094,0.040677983313798904
1775033827081650200,25.995650146484376,9.875179290771484,0.02871387079358101,0.035892341285943985
1775033827133130800,26.047130859375,9.8871431350708,0.040677983313798904,0.05024927482008934
1775033827184611300,26.098611328125,9.868000984191895,0.05503492057323456,0.06939185410737991
1775033827236092000,26.150091796875,9.879964828491211,0.031106693670153618,0.040677983313798904
1775033827287572700,26.20157275390625,9.89432144165039,-0.019142581149935722,0.004785645287483931
1775033827339053300,26.25305322265625,9.879964828491211,0.004785645287483931,0.040677983313798904
1775033827390534000,26.304533935546875,9.863214492797852,0.04546362906694412,0.06939185410737991
1775033827442014500,26.356014404296875,9.868000984191895,0.05024927482008934,0.040677983313798904
1775033827493495300,26.407495361328124,9.882357597351074,0.019142581149935722,0.035892341285943985
1775033827544976000,26.458975830078124,9.865608215332031,0.01196411345154047,0.04546362906694412
1775033827596456400,26.51045654296875,9.868000984191895,0.02153540402650833,0.040677983313798904
1775033827647937000,26.56193701171875,9.870393753051758,0.035892341285943985,0.031106693670153618
1775033827699417900,26.61341796875,9.872786521911621,0.03349951654672623,0.05024927482008934
1775033827750898400,26.6648984375,9.875179290771484,0.014356935396790504,0.035892341285943985
1775033827802379000,26.71637890625,9.860821723937988,0.03349951654672623,0.04785645380616188
1775033827853859600,26.767859619140626,9.879964828491211,0.03349951654672623,0.031106693670153618
1775033827905340200,26.819340087890627,9.875179290771484,0.02871387079358101,0.038285162299871445
1775033827956820700,26.87082080078125,9.865608215332031,0.035892341285943985,0.038285162299871445
1775033828008301600,26.922301513671876,9.870393753051758,0.038285162299871445,0.040677983313798904
1775033828059782100,26.9737822265625,9.879964828491211,0.02871387079358101,0.04307080805301666
1775033828111262700,27.0252626953125,9.872786521911621,0.02632104977965355,0.02392822690308094
1775033828162743300,27.076743408203125,9.868000984191895,0.040677983313798904,0.0526420995593071
1775033828214224100,27.12822412109375,9.875179290771484,0.02871387079358101,0.040677983313798904
1775033828265704700,27.17970458984375,9.870393753051758,0.03349951654672623,0.04307080805301666
1775033828317185300,27.231185302734374,9.879964828491211,0.040677983313798904,0.03349951654672623
1775033828368665900,27.282665771484375,9.891928672790527,0.038285162299871445,0.035892341285943985
1775033828420146700,27.334146728515623,9.875179290771484,0.031106693670153618,0.05024927482008934
1775033828514527700,27.42852783203125,9.870393753051758,0.019142581149935722,0.02871387079358101
1775033828566008300,27.48000830078125,9.872786521911621,0.02392822690308094,0.02392822690308094
1775033828617489200,27.5314892578125,9.870393753051758,0.03349951654672623,0.05024927482008934
1775033828668969700,27.5829697265625,9.868000984191895,0.02871387079358101,0.05024927482008934
1775033828720450300,27.6344501953125,9.877572059631348,0.02153540402650833,0.040677983313798904
1775033828771931000,27.685930908203126,9.865608215332031,0.031106693670153618,0.040677983313798904
1775033828823411500,27.737411376953126,9.853643417358398,0.03349951654672623,0.040677983313798904
1775033828874892300,27.788892333984375,9.8871431350708,0.019142581149935722,0.02632104977965355
1775033828926372900,27.840372802734375,9.870393753051758,0.02392822690308094,0.040677983313798904
1775033828977853400,27.891853515625,9.884750366210938,0.019142581149935722,0.04546362906694412
1775033829029334000,27.943333984375,9.879964828491211,0.02632104977965355,0.040677983313798904
1775033829080814600,27.994814697265625,9.865608215332031,0.02871387079358101,0.0526420995593071
1775033829132295400,28.04629541015625,9.875179290771484,0.03349951654672623,0.038285162299871445
1775033829183776000,28.09777587890625,9.868000984191895,0.03349951654672623,0.03349951654672623
1775033829235256600,28.149256591796874,9.863214492797852,0.02871387079358101,0.035892341285943985
1775033829286737200,28.200737060546874,9.875179290771484,0.02153540402650833,0.0526420995593071
1775033829338217700,28.2522177734375,9.872786521911621,0.02392822690308094,0.035892341285943985
1775033829389698600,28.303698486328123,9.856036186218262,0.035892341285943985,0.02871387079358101
1775033829441179100,28.35517919921875,9.870393753051758,0.035892341285943985,0.031106693670153618
1775033829535560200,28.449560302734376,9.870393753051758,0.03349951654672623,0.0526420995593071
1775033829587040800,28.501040771484377,9.884750366210938,0.02632104977965355,0.0526420995593071
1775033829638521600,28.552521484375,9.872786521911621,0.019142581149935722,0.0526420995593071
1775033829690002200,28.604002197265626,9.868000984191895,0.031106693670153618,0.06699903309345245
1775033829741482800,28.655482666015626,9.882357597351074,0.02392822690308094,0.05503492057323456
1775033829792963300,28.70696337890625,9.875179290771484,0.02871387079358101,0.05024927482008934
1775033829844444200,28.758444091796875,9.872786521911621,0.016749758273363113,0.04785645380616188
1775033829895924700,28.8099248046875,9.868000984191895,0.02153540402650833,0.040677983313798904
1775033829947405300,28.8614052734375,9.870393753051758,0.02632104977965355,0.038285162299871445
1775033829998886000,28.912885986328124,9.872786521911621,0.014356935396790504,0.02392822690308094
1775033830050366500,28.964366455078125,9.872786521911621,0.02153540402650833,0.040677983313798904
1775033830101847000,29.015846923828125,9.868000984191895,0.019142581149935722,0.035892341285943985
1775033830153327900,29.067327880859374,9.879964828491211,0.04785645380616188,0.04785645380616188
1775033830204808400,29.118808349609374,9.865608215332031,0.040677983313798904,0.04546362906694412
1775033830256289000,29.1702890625,9.860821723937988,0.040677983313798904,0.038285162299871445
1775033830307769600,29.22176953125,9.856036186218262,0.02871387079358101,0.04307080805301666
1775033830359250200,29.273250244140623,9.868000984191895,0.02153540402650833,0.05024927482008934
1775033830410730800,29.324730712890624,9.868000984191895,0.02871387079358101,0.0526420995593071
1775033830462211600,29.376211669921876,9.877572059631348,0.02632104977965355,0.0526420995593071
1775033830513692200,29.427692138671876,9.872786521911621,0.02871387079358101,0.04307080805301666
1775033830565172700,29.4791728515625,9.879964828491211,0.03349951654672623,0.040677983313798904
1775033830616653300,29.5306533203125,9.863214492797852,0.031106693670153618,0.04307080805301666
1775033830668134000,29.5821337890625,9.868000984191895,0.02153540402650833,0.035892341285943985
1775033830719614700,29.63361474609375,9.868000984191895,0.035892341285943985,0.03349951654672623
1775033830771095300,29.68509521484375,9.877572059631348,0.03349951654672623,0.04785645380616188
1775033830822575900,29.736575927734375,9.872786521911621,0.038285162299871445,0.035892341285943985
1775033830874056400,29.788056396484375,9.863214492797852,0.02871387079358101,0.02392822690308094
1775033830925537000,29.839537109375,9.879964828491211,0.02871387079358101,0.040677983313798904
1775033830977017900,29.891017822265624,9.872786521911621,0.038285162299871445,0.0526420995593071
1775033831028498400,29.94249853515625,9.860821723937988,0.035892341285943985,0.04785645380616188
1775033831079979000,29.99397900390625,9.872786521911621,0.03349951654672623,0.02871387079358101
1775033831174360000,30.088360107421874,9.848857879638672,0.02871387079358101,0.038285162299871445
1775033831225840600,30.139840576171874,9.879964828491211,0.02392822690308094,0.05503492057323456
1775033831277321500,30.191321533203126,9.872786521911621,0.035892341285943985,0.040677983313798904
1775033831328802000,30.242802001953127,9.875179290771484,0.02632104977965355,0.04546362906694412
1775033831380282600,30.29428271484375,9.879964828491211,0.031106693670153618,0.04307080805301666
1775033831474663700,30.38866357421875,9.875179290771484,0.031106693670153618,0.05503492057323456
1775033831526144300,30.440144287109376,9.872786521911621,0.02632104977965355,0.04785645380616188
1775033831577624800,30.491624755859377,9.863214492797852,0.02632104977965355,0.04546362906694412
1775033831629105700,30.543105712890625,9.875179290771484,0.02392822690308094,0.04307080805301666
1775033831680586200,30.594586181640626,9.868000984191895,0.02871387079358101,0.05024927482008934
1775033831732066800,30.64606689453125,9.865608215332031,0.02871387079358101,0.04546362906694412
1775033831783547400,30.69754736328125,9.875179290771484,0.02392822690308094,0.035892341285943985
1775033831835028000,30.749028076171875,9.875179290771484,0.031106693670153618,0.035892341285943985
1775033831886508500,30.800508544921875,9.882357597351074,0.02153540402650833,0.062213387340307236
1775033831937989000,30.851989013671876,9.868000984191895,0.031106693670153618,0.040677983313798904
1775033831989470000,30.903469970703124,9.875179290771484,0.035892341285943985,0.040677983313798904
1775033832040950500,30.954950439453125,9.879964828491211,0.02632104977965355,0.04785645380616188
1775033832092431000,31.00643115234375,9.870393753051758,0.016749758273363113,0.04307080805301666
1775033832143911700,31.05791162109375,9.875179290771484,0.02871387079358101,0.0526420995593071
1775033832195392300,31.109392333984374,9.877572059631348,0.03349951654672623,0.04307080805301666
1775033832246872800,31.160872802734374,9.872786521911621,0.038285162299871445,0.04307080805301666
1775033832298353400,31.212353515625,9.853643417358398,0.031106693670153618,0.05024927482008934
1775033832349834200,31.263834228515623,9.858428955078125,0.04546362906694412,0.04785645380616188
1775033832401314800,31.315314697265624,9.879964828491211,0.02632104977965355,0.04546362906694412
1775033832452795400,31.36679541015625,9.884750366210938,0.02632104977965355,0.04307080805301666
1775033832504276000,31.41827587890625,9.882357597351074,0.03349951654672623,0.0526420995593071
1775033832555756500,31.469756591796877,9.875179290771484,0.03349951654672623,0.038285162299871445
1775033832607237000,31.521237060546873,9.863214492797852,0.035892341285943985,0.02632104977965355
1775033832658718000,31.572718017578126,9.879964828491211,0.02871387079358101,0.038285162299871445
1775033832710198500,31.624198486328126,9.877572059631348,0.02871387079358101,0.04546362906694412
1775033832761679000,31.67567919921875,9.868000984191895,0.02871387079358101,0.0526420995593071
1775033832813159700,31.72715966796875,9.875179290771484,0.02871387079358101,0.035892341285943985
1775033832864640300,31.77864013671875,9.856036186218262,0.02871387079358101,0.04307080805301666
1775033832916120800,31.830120849609376,9.89432144165039,0.035892341285943985,0.0526420995593071
1775033832967601400,31.881601318359376,9.863214492797852,0.038285162299871445,0.04546362906694412
1775033833019082000,31.93308203125,9.870393753051758,0.02392822690308094,0.02871387079358101
1775033833070562600,31.9845625,9.868000984191895,0.02392822690308094,0.02871387079358101
1775033833122043100,32.036043212890625,9.877572059631348,0.009571290574967861,0.0526420995593071
1775033833173524000,32.08752392578125,9.875179290771484,0.02153540402650833,0.04307080805301666
1775033833225004500,32.13900463867188,9.872786521911621,0.02871387079358101,0.031106693670153618
1775033833276485000,32.19048510742188,9.882357597351074,0.031106693670153618,0.040677983313798904
1775033833327965700,32.24196557617187,9.868000984191895,0.03349951654672623,0.05742774158716202
1775033833379446300,32.2934462890625,9.865608215332031,0.02153540402650833,0.04546362906694412
1775033833430926800,32.3449267578125,9.863214492797852,0.031106693670153618,0.038285162299871445
1775033833482407400,32.396407470703124,9.870393753051758,0.02871387079358101,0.04785645380616188
1775033833533888000,32.447887939453125,9.875179290771484,0.035892341285943985,0.05503492057323456
1775033833585368800,32.49936889648438,9.879964828491211,0.02153540402650833,0.05024927482008934
1775033833636849400,32.55084936523438,9.872786521911621,0.02871387079358101,0.038285162299871445
1775033833688330000,32.602330078125,9.875179290771484,0.02153540402650833,0.04546362906694412
1775033833739810600,32.653810546875,9.884750366210938,0.03349951654672623,0.04546362906694412
1775033833791291100,32.705291015625,9.877572059631348,0.02871387079358101,0.04307080805301666
1775033833842771700,32.75677172851562,9.877572059631348,0.04307080805301666,0.035892341285943985
1775033833894252300,32.808252197265624,9.872786521911621,0.02153540402650833,0.05503492057323456
1775033833945732900,32.85973291015625,9.879964828491211,0.035892341285943985,0.05024927482008934
1775033833997213400,32.91121337890625,9.875179290771484,0.02632104977965355,0.040677983313798904
1775033834048694000,32.96269409179688,9.872786521911621,0.02392822690308094,0.04785645380616188
1775033834100174600,33.01417456054688,9.884750366210938,0.019142581149935722,0.04546362906694412
1775033834151655400,33.06565551757812,9.868000984191895,0.02392822690308094,0.05024927482008934
1775033834203136000,33.11713598632812,9.872786521911621,0.035892341285943985,0.040677983313798904
1775033834254616600,33.16861645507812,9.879964828491211,0.02392822690308094,0.04307080805301666
1775033834306097200,33.22009716796875,9.870393753051758,0.040677983313798904,0.04546362906694412
1775033834357577700,33.27157763671875,9.870393753051758,0.031106693670153618,0.04546362906694412
1775033834409058300,33.323058349609376,9.868000984191895,0.02871387079358101,0.05024927482008934
1775033834460539000,33.374538818359376,9.882357597351074,0.031106693670153618,0.035892341285943985
1775033834554920000,33.468919921875,9.875179290771484,0.02632104977965355,0.04546362906694412
1775033834606400800,33.52040087890625,9.872786521911621,0.02632104977965355,0.038285162299871445
1775033834657881300,33.57188134765625,9.877572059631348,0.02871387079358101,0.035892341285943985
1775033834709362000,33.62336181640625,9.860821723937988,0.03349951654672623,0.040677983313798904
1775033834760842500,33.674842529296875,9.863214492797852,0.02153540402650833,0.04785645380616188
1775033834855223600,33.7692236328125,9.865608215332031,0.02871387079358101,0.0526420995593071
1775033834906704100,33.8207041015625,9.865608215332031,0.031106693670153618,0.035892341285943985
1775033834958184700,33.87218481445313,9.868000984191895,0.02153540402650833,0.02871387079358101
1775033835009665300,33.92366528320313,9.882357597351074,0.02392822690308094,0.04546362906694412
1775033835061145900,33.97514575195312,9.868000984191895,0.02392822690308094,0.05024927482008934
1775033835112626400,34.02662646484375,9.865608215332031,0.031106693670153618,0.02871387079358101
1775033835164107300,34.078107177734374,9.877572059631348,0.035892341285943985,0.03349951654672623
1775033835215587800,34.129587890625,9.872786521911621,0.02392822690308094,0.04785645380616188
1775033835267068400,34.181068359375,9.879964828491211,0.02392822690308094,0.04307080805301666
1775033835318549000,34.23254907226563,9.870393753051758,0.02632104977965355,0.04307080805301666
1775033835370029600,34.28402954101563,9.877572059631348,0.02392822690308094,0.02392822690308094
1775033835421510100,34.33551025390625,9.863214492797852,0.035892341285943985,0.04785645380616188
1775033835472990700,34.38699072265625,9.865608215332031,0.02153540402650833,0.040677983313798904
1775033835524471300,34.43847119140625,9.868000984191895,0.02392822690308094,0.04785645380616188
1775033835575952000,34.48995190429687,9.875179290771484,0.02392822690308094,0.04307080805301666
1775033835627432400,34.541432373046874,9.868000984191895,0.02392822690308094,0.04546362906694412
1775033835678913000,34.5929130859375,9.865608215332031,0.031106693670153618,0.04785645380616188
1775033835730393600,34.6443935546875,9.875179290771484,0.016749758273363113,0.035892341285943985
1775033835781874200,34.69587426757813,9.863214492797852,0.02632104977965355,0.03349951654672623
1775033835833354800,34.74735473632813,9.868000984191895,0.02632104977965355,0.04785645380616188
1775033835884835600,34.79883569335937,9.865608215332031,0.031106693670153618,0.064606212079525
1775033835936316200,34.85031616210937,9.868000984191895,0.02392822690308094,0.040677983313798904
1775033835987796700,34.90179663085937,9.882357597351074,0.02871387079358101,0.04546362906694412
1775033836039277300,34.95327734375,9.870393753051758,0.02871387079358101,0.038285162299871445
1775033836090758000,35.0047578125,9.875179290771484,0.02153540402650833,0.04307080805301666
1775033836142238500,35.056238525390626,9.875179290771484,0.02392822690308094,0.0526420995593071
1775033836193719000,35.107718994140626,9.877572059631348,0.02632104977965355,0.04546362906694412
1775033836245199600,35.15919970703125,9.868000984191895,0.031106693670153618,0.040677983313798904
1775033836296680200,35.21068017578125,9.877572059631348,0.02153540402650833,0.04546362906694412
1775033836348160800,35.26216088867187,9.879964828491211,0.02871387079358101,0.03349951654672623
1775033836399641300,35.31364135742187,9.879964828491211,0.031106693670153618,0.05742774158716202
1775033836451122200,35.3651220703125,9.875179290771484,0.02153540402650833,0.035892341285943985
1775033836502602800,35.416602783203125,9.879964828491211,0.03349951654672623,0.04546362906694412
1775033836554083300,35.468083251953125,9.860821723937988,0.03349951654672623,0.03349951654672623
1775033836605564000,35.51956396484375,9.865608215332031,0.03349951654672623,0.038285162299871445
1775033836657044500,35.57104443359375,9.868000984191895,0.02632104977965355,0.05503492057323456
1775033836708525000,35.62252514648438,9.865608215332031,0.031106693670153618,0.04546362906694412
1775033836760005600,35.67400561523438,9.877572059631348,0.03349951654672623,0.04307080805301666
1775033836811486200,35.725486328125,9.865608215332031,0.03349951654672623,0.031106693670153618
1775033836862966800,35.776966796875,9.870393753051758,0.02632104977965355,0.04546362906694412
1775033836914447400,35.828447265625,9.870393753051758,0.02632104977965355,0.04546362906694412
1775033836965928000,35.879927978515624,9.872786521911621,0.035892341285943985,0.04785645380616188
1775033837017408500,35.931408447265625,9.872786521911621,0.02632104977965355,0.040677983313798904
1775033837068889000,35.98288916015625,9.856036186218262,0.016749758273363113,0.0526420995593071
1775033837120369700,36.03436962890625,9.875179290771484,0.02392822690308094,0.04785645380616188
1775033837214751000,36.1287509765625,9.868000984191895,0.031106693670153618,0.05024927482008934
1775033837266231600,36.1802314453125,9.868000984191895,0.031106693670153618,0.05024927482008934
1775033837317712100,36.23171215820312,9.877572059631348,0.040677983313798904,0.038285162299871445
1775033837369192400,36.2831923828125,9.877572059631348,0.02632104977965355,0.0526420995593071
1775033837420673300,36.33467333984375,9.875179290771484,0.02392822690308094,0.05024927482008934
1775033837515054300,36.42905444335938,9.889535903930664,0.02632104977965355,0.035892341285943985
1775033837566535000,36.48053491210938,9.865608215332031,0.02153540402650833,0.02871387079358101
1775033837618015500,36.53201538085938,9.865608215332031,0.019142581149935722,0.05742774158716202
1775033837669496000,36.58349609375,9.870393753051758,0.03349951654672623,0.05024927482008934
1775033837720976600,36.6349765625,9.875179290771484,0.035892341285943985,0.03349951654672623
1775033837815357700,36.72935766601562,9.863214492797852,0.035892341285943985,0.019142581149935722
1775033837866838300,36.78083837890625,9.872786521911621,0.02392822690308094,0.040677983313798904
1775033837918318800,36.83231884765625,9.863214492797852,0.031106693670153618,0.05742774158716202
1775033837969799400,36.88379931640625,9.870393753051758,0.038285162299871445,0.038285162299871445
1775033838021280000,36.93528002929688,9.8871431350708,0.031106693670153618,0.04307080805301666
1775033838072760600,36.98676049804688,9.877572059631348,0.031106693670153618,0.040677983313798904
1775033838124241200,37.0382412109375,9.860821723937988,0.019142581149935722,0.035892341285943985
1775033838175721700,37.0897216796875,9.875179290771484,0.02871387079358101,0.04546362906694412
1775033838227202300,37.14120239257812,9.868000984191895,0.009571290574967861,0.03349951654672623
1775033838278683000,37.19268286132812,9.877572059631348,0.035892341285943985,0.04546362906694412
1775033838330163500,37.24416357421875,9.872786521911621,0.02871387079358101,0.04546362906694412
1775033838381644000,37.29564404296875,9.872786521911621,0.038285162299871445,0.035892341285943985
1775033838433124600,37.34712451171875,9.872786521911621,0.04307080805301666,0.03349951654672623
1775033838484605200,37.398605224609376,9.89432144165039,0.02632104977965355,0.038285162299871445
1775033838536085800,37.45008569335938,9.875179290771484,0.02871387079358101,0.05742774158716202
1775033838587566600,37.50156665039062,9.877572059631348,0.04785645380616188,0.064606212079525
1775033838639047200,37.55304711914062,9.872786521911621,0.02871387079358101,0.02153540402650833
1775033838690527700,37.60452783203125,9.872786521911621,0.035892341285943985,0.035892341285943985
1775033838742008300,37.65600830078125,9.884750366210938,0.02871387079358101,0.038285162299871445
1775033838793489000,37.707489013671875,9.875179290771484,0.035892341285943985,0.0526420995593071
1775033838844969500,37.758969482421875,9.884750366210938,0.019142581149935722,0.02871387079358101
1775033838896450000,37.810449951171876,9.882357597351074,0.04307080805301666,0.02871387079358101
1775033838947930600,37.8619306640625,9.856036186218262,0.04546362906694412,0.05742774158716202
1775033838999411000,37.913410888671876,9.875179290771484,0.03349951654672623,0.040677983313798904
1775033839050891800,37.96489184570312,9.872786521911621,0.04307080805301666,0.031106693670153618
1775033839102372400,38.01637231445312,9.879964828491211,0.031106693670153618,0.02632104977965355
1775033839153853000,38.06785302734375,9.863214492797852,0.02153540402650833,0.04785645380616188
1775033839205333500,38.11933349609375,9.865608215332031,0.031106693670153618,0.03349951654672623
1775033839256814000,38.17081396484375,9.872786521911621,0.038285162299871445,0.040677983313798904
1775033839308294700,38.222294677734375,9.889535903930664,0.02153540402650833,0.02153540402650833
1775033839359775200,38.273775146484375,9.870393753051758,0.03349951654672623,0.04546362906694412
1775033839454156300,38.36815625,9.870393753051758,0.02153540402650833,0.04307080805301666
1775033839505636900,38.41963696289063,9.865608215332031,0.02632104977965355,0.0526420995593071
1775033839557117400,38.47111743164062,9.872786521911621,0.02153540402650833,0.040677983313798904
1775033839608598000,38.52259790039062,9.870393753051758,0.03349951654672623,0.02632104977965355
1775033839660078600,38.57407861328125,9.865608215332031,0.02392822690308094,0.04785645380616188
1775033839754459600,38.668459716796875,9.851250648498535,0.031106693670153618,0.04307080805301666
1775033839805940200,38.719940185546875,9.875179290771484,0.038285162299871445,0.040677983313798904
1775033839857420800,38.7714208984375,9.856036186218262,0.03349951654672623,0.0526420995593071
1775033839908901400,38.8229013671875,9.865608215332031,0.02632104977965355,0.03349951654672623
1775033839960382000,38.8743818359375,9.884750366210938,0.02392822690308094,0.04546362906694412
1775033840011862500,38.92586254882813,9.872786521911621,0.031106693670153618,0.040677983313798904
1775033840063343000,38.97734301757812,9.877572059631348,0.02871387079358101,0.035892341285943985
1775033840114823700,39.02882373046875,9.870393753051758,0.02871387079358101,0.04546362906694412
1775033840166304300,39.08030419921875,9.865608215332031,0.02871387079358101,0.04785645380616188
1775033840217784800,39.131784912109374,9.875179290771484,0.031106693670153618,0.04546362906694412
1775033840269265400,39.183265380859375,9.868000984191895,0.02632104977965355,0.035892341285943985
1775033840320746000,39.23474609375,9.882357597351074,0.035892341285943985,0.04307080805301666
1775033840415127000,39.329126953125,9.8871431350708,0.02632104977965355,0.040677983313798904
1775033840466607600,39.38060766601563,9.877572059631348,0.031106693670153618,0.05503492057323456
1775033840518088200,39.43208813476563,9.882357597351074,0.031106693670153618,0.040677983313798904
1775033840569568800,39.48356884765625,9.872786521911621,0.031106693670153618,0.038285162299871445
1775033840621049300,39.53504931640625,9.870393753051758,0.02871387079358101,0.04785645380616188
1775033840672530000,39.586530029296874,9.879964828491211,0.031106693670153618,0.05024927482008934
1775033840724010500,39.638010498046874,9.870393753051758,0.02632104977965355,0.04546362906694412
1775033840775491000,39.689490966796875,9.868000984191895,0.02392822690308094,0.03349951654672623
1775033840826971600,39.7409716796875,9.860821723937988,0.02871387079358101,0.04785645380616188
1775033840878452200,39.7924521484375,9.879964828491211,0.03349951654672623,0.05024927482008934
1775033840929932800,39.84393286132813,9.870393753051758,0.02153540402650833,0.040677983313798904
1775033840981413400,39.89541333007813,9.863214492797852,0.02871387079358101,0.03349951654672623
1775033841032894000,39.94689404296875,9.879964828491211,0.02632104977965355,0.04546362906694412
1775033841084374300,39.99837426757812,9.865608215332031,0.038285162299871445,0.04785645380616188
1775033841135854800,40.04985473632812,9.882357597351074,0.038285162299871445,0.05024927482008934
1775033841187335400,40.10133544921875,9.860821723937988,0.02871387079358101,0.03349951654672623
1775033841238816000,40.15281591796875,9.882357597351074,0.02871387079358101,0.03349951654672623
1775033841290296600,40.204296630859375,9.860821723937988,0.04307080805301666,0.05024927482008934
1775033841341777200,40.255777099609375,9.870393753051758,0.031106693670153618,0.04307080805301666
1775033841393257700,40.3072578125,9.870393753051758,0.02392822690308094,0.040677983313798904
1775033841444738300,40.35873828125,9.858428955078125,0.02871387079358101,0.03349951654672623
1775033841496219000,40.41021899414063,9.858428955078125,0.02632104977965355,0.04546362906694412
1775033841547699500,40.46169946289063,9.865608215332031,0.02153540402650833,0.05503492057323456
1775033841599180000,40.51317993164062,9.872786521911621,0.019142581149935722,0.038285162299871445
1775033841650660600,40.56466064453125,9.875179290771484,0.038285162299871445,0.038285162299871445
1775033841702141200,40.61614111328125,9.870393753051758,0.02871387079358101,0.0526420995593071
1775033841753621800,40.667621826171874,9.877572059631348,0.02392822690308094,0.04546362906694412
1775033841805102300,40.719102294921875,9.856036186218262,0.031106693670153618,0.038285162299871445
1775033841856583000,40.7705830078125,9.858428955078125,0.03349951654672623,0.035892341285943985
1775033841908063500,40.8220634765625,9.863214492797852,0.02871387079358101,0.04546362906694412
1775033841959544000,40.8735439453125,9.870393753051758,0.031106693670153618,0.04785645380616188
1775033842011024600,40.92502465820313,10.76530933380127,-0.02871387079358101,0.19142581522464752
1775033842062505200,40.97650512695313,8.571090698242188,0.21296121180057526,-0.3206382393836975
